filename,browser,version,screenWidth,screenHeight,OS,OS_lang,GMT_timestamp,local_timestamp,trial_file_version,link,duration_s,duration,duration_m,rowNo,type,stim1,textColor,key,condition1,condition2,feedback,stimFormat,ITI,keyboard,random,head,responseType,responseOptions,responseOther,ITI_ms,ITI_f,ITI_fDuration,timestamp,response,RT,correct,responseCode
425529_260414_134603.csv,Chrome,146.0.0.0,1710,1112,MacOS,en-GB,2026-04-14_13:43:45,2026-04-14_14:43:45,2026-04-14_13:37:17,https://www.testable.org/experiment/20535/425529/start,138.095,138095,2.3015,3,test,CAR,green,right,practice,NA,"correct: That's correct! You responded in %RT% milliseconds:\nincorrect: Incorrect... You responded in %RT% milliseconds",word,800,"left up right",,,,,,800,48,16.67,5790,right,694,1,
425529_260414_134603.csv,Chrome,146.0.0.0,1710,1112,MacOS,en-GB,2026-04-14_13:43:45,2026-04-14_14:43:45,2026-04-14_13:37:17,https://www.testable.org/experiment/20535/425529/start,138.095,138095,2.3015,4,test,SHOE,blue,up,practice,NA,"correct: That's correct! You responded in %RT% milliseconds:\nincorrect: Incorrect... You responded in %RT% milliseconds",word,800,"left up right",,,,,,800,48,16.67,8457,up,743,1,
425529_260414_134603.csv,Chrome,146.0.0.0,1710,1112,MacOS,en-GB,2026-04-14_13:43:45,2026-04-14_14:43:45,2026-04-14_13:37:17,https://www.testable.org/experiment/20535/425529/start,138.095,138095,2.3015,5,test,RED,red,left,practice,congruent,"correct: That's correct! You responded in %RT% milliseconds:\nincorrect: Incorrect... You responded in %RT% milliseconds",word,800,"left up right",,,,,,800,48,16.66,10540,left,526,1,
425529_260414_134603.csv,Chrome,146.0.0.0,1710,1112,MacOS,en-GB,2026-04-14_13:43:45,2026-04-14_14:43:45,2026-04-14_13:37:17,https://www.testable.org/experiment/20535/425529/start,138.095,138095,2.3015,6,test,HOUSE,blue,up,practice,NA,"correct: That's correct! You responded in %RT% milliseconds:\nincorrect: Incorrect... You responded in %RT% milliseconds",word,800,"left up right",,,,,,800,48,16.67,12894,right,913,0,
425529_260414_134603.csv,Chrome,146.0.0.0,1710,1112,MacOS,en-GB,2026-04-14_13:43:45,2026-04-14_14:43:45,2026-04-14_13:37:17,https://www.testable.org/experiment/20535/425529/start,138.095,138095,2.3015,7,test,BLUE,green,right,practice,incongruent,"correct: That's correct! You responded in %RT% milliseconds:\nincorrect: Incorrect... The word was ""BLUE"" but it was in GREEN. You responded in %RT% milliseconds",word,800,"left up right",,,,,,800,48,16.67,15045,up,1365,0,
425529_260414_134603.csv,Chrome,146.0.0.0,1710,1112,MacOS,en-GB,2026-04-14_13:43:45,2026-04-14_14:43:45,2026-04-14_13:37:17,https://www.testable.org/experiment/20535/425529/start,138.095,138095,2.3015,8,test,GREEN,red,left,practice,incongruent,"correct: That's correct! You responded in %RT% milliseconds:\nincorrect: Incorrect... The word was GREEN but it was in RED. You responded in %RT% milliseconds",word,800,"left up right",,,,,,800,48,16.67,16645,left,798,1,
425529_260414_134603.csv,Chrome,146.0.0.0,1710,1112,MacOS,en-GB,2026-04-14_13:43:45,2026-04-14_14:43:45,2026-04-14_13:37:17,https://www.testable.org/experiment/20535/425529/start,138.095,138095,2.3015,41,test,SHOE,blue,up,fillers,NA,,word,800,"left up right",1,,,,,800,48,16.67,22037,up,1073,1,
425529_260414_134603.csv,Chrome,146.0.0.0,1710,1112,MacOS,en-GB,2026-04-14_13:43:45,2026-04-14_14:43:45,2026-04-14_13:37:17,https://www.testable.org/experiment/20535/425529/start,138.095,138095,2.3015,10,test,RED,red,left,critical,congruent,,word,800,"left up right",1,,,,,800,48,16.67,23450,left,620,1,
425529_260414_134603.csv,Chrome,146.0.0.0,1710,1112,MacOS,en-GB,2026-04-14_13:43:45,2026-04-14_14:43:45,2026-04-14_13:37:17,https://www.testable.org/experiment/20535/425529/start,138.095,138095,2.3015,35,test,CAR,green,right,fillers,NA,,word,800,"left up right",1,,,,,800,48,16.67,24836,right,589,1,
425529_260414_134603.csv,Chrome,146.0.0.0,1710,1112,MacOS,en-GB,2026-04-14_13:43:45,2026-04-14_14:43:45,2026-04-14_13:37:17,https://www.testable.org/experiment/20535/425529/start,138.095,138095,2.3015,34,test,CAR,red,left,fillers,NA,,word,800,"left up right",1,,,,,800,48,16.66,26252,left,622,1,
425529_260414_134603.csv,Chrome,146.0.0.0,1710,1112,MacOS,en-GB,2026-04-14_13:43:45,2026-04-14_14:43:45,2026-04-14_13:37:17,https://www.testable.org/experiment/20535/425529/start,138.095,138095,2.3015,17,test,RED,blue,up,critical,incongruent,,word,800,"left up right",1,,,,,800,48,16.67,28007,up,960,1,
425529_260414_134603.csv,Chrome,146.0.0.0,1710,1112,MacOS,en-GB,2026-04-14_13:43:45,2026-04-14_14:43:45,2026-04-14_13:37:17,https://www.testable.org/experiment/20535/425529/start,138.095,138095,2.3015,33,test,GREEN,blue,up,critical,incongruent,,word,800,"left up right",1,,,,,800,48,16.66,29744,right,947,0,
425529_260414_134603.csv,Chrome,146.0.0.0,1710,1112,MacOS,en-GB,2026-04-14_13:43:45,2026-04-14_14:43:45,2026-04-14_13:37:17,https://www.testable.org/experiment/20535/425529/start,138.095,138095,2.3015,29,test,GREEN,green,right,critical,congruent,,word,800,"left up right",1,,,,,800,48,16.67,31604,right,1073,1,
425529_260414_134603.csv,Chrome,146.0.0.0,1710,1112,MacOS,en-GB,2026-04-14_13:43:45,2026-04-14_14:43:45,2026-04-14_13:37:17,https://www.testable.org/experiment/20535/425529/start,138.095,138095,2.3015,42,test,HOUSE,green,right,fillers,NA,,word,800,"left up right",1,,,,,800,48,16.67,33102,right,704,1,
425529_260414_134603.csv,Chrome,146.0.0.0,1710,1112,MacOS,en-GB,2026-04-14_13:43:45,2026-04-14_14:43:45,2026-04-14_13:37:17,https://www.testable.org/experiment/20535/425529/start,138.095,138095,2.3015,30,test,GREEN,red,left,critical,incongruent,,word,800,"left up right",1,,,,,800,48,16.67,34559,left,662,1,
425529_260414_134603.csv,Chrome,146.0.0.0,1710,1112,MacOS,en-GB,2026-04-14_13:43:45,2026-04-14_14:43:45,2026-04-14_13:37:17,https://www.testable.org/experiment/20535/425529/start,138.095,138095,2.3015,24,test,BLUE,red,left,critical,incongruent,,word,800,"left up right",1,,,,,800,48,16.67,36345,left,998,1,
425529_260414_134603.csv,Chrome,146.0.0.0,1710,1112,MacOS,en-GB,2026-04-14_13:43:45,2026-04-14_14:43:45,2026-04-14_13:37:17,https://www.testable.org/experiment/20535/425529/start,138.095,138095,2.3015,45,test,HOUSE,green,right,fillers,NA,,word,800,"left up right",1,,,,,800,48,16.67,37765,right,618,1,
425529_260414_134603.csv,Chrome,146.0.0.0,1710,1112,MacOS,en-GB,2026-04-14_13:43:45,2026-04-14_14:43:45,2026-04-14_13:37:17,https://www.testable.org/experiment/20535/425529/start,138.095,138095,2.3015,13,test,RED,red,left,critical,congruent,,word,800,"left up right",1,,,,,800,48,16.66,39390,left,825,1,
425529_260414_134603.csv,Chrome,146.0.0.0,1710,1112,MacOS,en-GB,2026-04-14_13:43:45,2026-04-14_14:43:45,2026-04-14_13:37:17,https://www.testable.org/experiment/20535/425529/start,138.095,138095,2.3015,19,test,BLUE,blue,up,critical,congruent,,word,800,"left up right",1,,,,,800,48,16.68,40808,up,627,1,
425529_260414_134603.csv,Chrome,146.0.0.0,1710,1112,MacOS,en-GB,2026-04-14_13:43:45,2026-04-14_14:43:45,2026-04-14_13:37:17,https://www.testable.org/experiment/20535/425529/start,138.095,138095,2.3015,40,test,SHOE,green,right,fillers,NA,,word,800,"left up right",1,,,,,800,48,16.67,42119,right,522,1,
425529_260414_134603.csv,Chrome,146.0.0.0,1710,1112,MacOS,en-GB,2026-04-14_13:43:45,2026-04-14_14:43:45,2026-04-14_13:37:17,https://www.testable.org/experiment/20535/425529/start,138.095,138095,2.3015,22,test,BLUE,red,left,critical,incongruent,,word,800,"left up right",1,,,,,800,48,16.67,43608,left,694,1,
425529_260414_134603.csv,Chrome,146.0.0.0,1710,1112,MacOS,en-GB,2026-04-14_13:43:45,2026-04-14_14:43:45,2026-04-14_13:37:17,https://www.testable.org/experiment/20535/425529/start,138.095,138095,2.3015,16,test,RED,green,right,critical,incongruent,,word,800,"left up right",1,,,,,800,48,16.67,45566,right,1169,1,
425529_260414_134603.csv,Chrome,146.0.0.0,1710,1112,MacOS,en-GB,2026-04-14_13:43:45,2026-04-14_14:43:45,2026-04-14_13:37:17,https://www.testable.org/experiment/20535/425529/start,138.095,138095,2.3015,25,test,BLUE,green,right,critical,incongruent,,word,800,"left up right",1,,,,,800,48,16.66,47255,right,890,1,
425529_260414_134603.csv,Chrome,146.0.0.0,1710,1112,MacOS,en-GB,2026-04-14_13:43:45,2026-04-14_14:43:45,2026-04-14_13:37:17,https://www.testable.org/experiment/20535/425529/start,138.095,138095,2.3015,43,test,HOUSE,blue,up,fillers,NA,,word,800,"left up right",1,,,,,799,48,16.65,48701,up,653,1,
425529_260414_134603.csv,Chrome,146.0.0.0,1710,1112,MacOS,en-GB,2026-04-14_13:43:45,2026-04-14_14:43:45,2026-04-14_13:37:17,https://www.testable.org/experiment/20535/425529/start,138.095,138095,2.3015,18,test,BLUE,blue,up,critical,congruent,,word,800,"left up right",1,,,,,800,48,16.67,50389,up,892,1,
425529_260414_134603.csv,Chrome,146.0.0.0,1710,1112,MacOS,en-GB,2026-04-14_13:43:45,2026-04-14_14:43:45,2026-04-14_13:37:17,https://www.testable.org/experiment/20535/425529/start,138.095,138095,2.3015,20,test,BLUE,blue,up,critical,congruent,,word,800,"left up right",1,,,,,801,48,16.68,51699,up,519,1,
425529_260414_134603.csv,Chrome,146.0.0.0,1710,1112,MacOS,en-GB,2026-04-14_13:43:45,2026-04-14_14:43:45,2026-04-14_13:37:17,https://www.testable.org/experiment/20535/425529/start,138.095,138095,2.3015,14,test,RED,green,right,critical,incongruent,,word,800,"left up right",1,,,,,800,48,16.67,54045,right,1548,1,
425529_260414_134603.csv,Chrome,146.0.0.0,1710,1112,MacOS,en-GB,2026-04-14_13:43:45,2026-04-14_14:43:45,2026-04-14_13:37:17,https://www.testable.org/experiment/20535/425529/start,138.095,138095,2.3015,37,test,CAR,red,left,fillers,NA,,word,800,"left up right",1,,,,,800,48,16.67,55551,left,704,1,
425529_260414_134603.csv,Chrome,146.0.0.0,1710,1112,MacOS,en-GB,2026-04-14_13:43:45,2026-04-14_14:43:45,2026-04-14_13:37:17,https://www.testable.org/experiment/20535/425529/start,138.095,138095,2.3015,31,test,GREEN,blue,up,critical,incongruent,,word,800,"left up right",1,,,,,800,48,16.66,57240,up,893,1,
425529_260414_134603.csv,Chrome,146.0.0.0,1710,1112,MacOS,en-GB,2026-04-14_13:43:45,2026-04-14_14:43:45,2026-04-14_13:37:17,https://www.testable.org/experiment/20535/425529/start,138.095,138095,2.3015,27,test,GREEN,green,right,critical,congruent,,word,800,"left up right",1,,,,,800,48,16.67,58749,right,718,1,
425529_260414_134603.csv,Chrome,146.0.0.0,1710,1112,MacOS,en-GB,2026-04-14_13:43:45,2026-04-14_14:43:45,2026-04-14_13:37:17,https://www.testable.org/experiment/20535/425529/start,138.095,138095,2.3015,39,test,SHOE,red,left,fillers,NA,,word,800,"left up right",1,,,,,800,48,16.66,60203,left,656,1,
425529_260414_134603.csv,Chrome,146.0.0.0,1710,1112,MacOS,en-GB,2026-04-14_13:43:45,2026-04-14_14:43:45,2026-04-14_13:37:17,https://www.testable.org/experiment/20535/425529/start,138.095,138095,2.3015,11,test,RED,red,left,critical,congruent,,word,800,"left up right",1,,,,,800,48,16.67,61560,left,562,1,
425529_260414_134603.csv,Chrome,146.0.0.0,1710,1112,MacOS,en-GB,2026-04-14_13:43:45,2026-04-14_14:43:45,2026-04-14_13:37:17,https://www.testable.org/experiment/20535/425529/start,138.095,138095,2.3015,15,test,RED,blue,up,critical,incongruent,,word,800,"left up right",1,,,,,800,48,16.66,63056,up,708,1,
425529_260414_134603.csv,Chrome,146.0.0.0,1710,1112,MacOS,en-GB,2026-04-14_13:43:45,2026-04-14_14:43:45,2026-04-14_13:37:17,https://www.testable.org/experiment/20535/425529/start,138.095,138095,2.3015,44,test,HOUSE,red,left,fillers,NA,,word,800,"left up right",1,,,,,800,48,16.67,64547,left,699,1,
425529_260414_134603.csv,Chrome,146.0.0.0,1710,1112,MacOS,en-GB,2026-04-14_13:43:45,2026-04-14_14:43:45,2026-04-14_13:37:17,https://www.testable.org/experiment/20535/425529/start,138.095,138095,2.3015,28,test,GREEN,green,right,critical,congruent,,word,800,"left up right",1,,,,,800,48,16.67,66188,right,841,1,
425529_260414_134603.csv,Chrome,146.0.0.0,1710,1112,MacOS,en-GB,2026-04-14_13:43:45,2026-04-14_14:43:45,2026-04-14_13:37:17,https://www.testable.org/experiment/20535/425529/start,138.095,138095,2.3015,23,test,BLUE,green,right,critical,incongruent,,word,800,"left up right",1,,,,,800,48,16.67,67777,right,796,1,
425529_260414_134603.csv,Chrome,146.0.0.0,1710,1112,MacOS,en-GB,2026-04-14_13:43:45,2026-04-14_14:43:45,2026-04-14_13:37:17,https://www.testable.org/experiment/20535/425529/start,138.095,138095,2.3015,32,test,GREEN,red,left,critical,incongruent,,word,800,"left up right",1,,,,,800,48,16.67,69220,left,655,1,
425529_260414_134603.csv,Chrome,146.0.0.0,1710,1112,MacOS,en-GB,2026-04-14_13:43:45,2026-04-14_14:43:45,2026-04-14_13:37:17,https://www.testable.org/experiment/20535/425529/start,138.095,138095,2.3015,38,test,SHOE,blue,up,fillers,NA,,word,800,"left up right",1,,,,,800,48,16.66,70745,up,731,1,
425529_260414_134603.csv,Chrome,146.0.0.0,1710,1112,MacOS,en-GB,2026-04-14_13:43:45,2026-04-14_14:43:45,2026-04-14_13:37:17,https://www.testable.org/experiment/20535/425529/start,138.095,138095,2.3015,26,test,GREEN,green,right,critical,congruent,,word,800,"left up right",1,,,,,800,48,16.67,72607,right,1060,1,
425529_260414_134603.csv,Chrome,146.0.0.0,1710,1112,MacOS,en-GB,2026-04-14_13:43:45,2026-04-14_14:43:45,2026-04-14_13:37:17,https://www.testable.org/experiment/20535/425529/start,138.095,138095,2.3015,12,test,RED,red,left,critical,congruent,,word,800,"left up right",1,,,,,800,48,16.67,73841,left,443,1,
425529_260414_134603.csv,Chrome,146.0.0.0,1710,1112,MacOS,en-GB,2026-04-14_13:43:45,2026-04-14_14:43:45,2026-04-14_13:37:17,https://www.testable.org/experiment/20535/425529/start,138.095,138095,2.3015,21,test,BLUE,blue,up,critical,congruent,,word,800,"left up right",1,,,,,800,48,16.67,75434,up,803,1,
425529_260414_134603.csv,Chrome,146.0.0.0,1710,1112,MacOS,en-GB,2026-04-14_13:43:45,2026-04-14_14:43:45,2026-04-14_13:37:17,https://www.testable.org/experiment/20535/425529/start,138.095,138095,2.3015,36,test,CAR,blue,up,fillers,NA,,word,800,"left up right",1,,,,,800,48,16.67,76901,up,670,1,
425529_260414_134603.csv,Chrome,146.0.0.0,1710,1112,MacOS,en-GB,2026-04-14_13:43:45,2026-04-14_14:43:45,2026-04-14_13:37:17,https://www.testable.org/experiment/20535/425529/start,138.095,138095,2.3015,72,test,BLUE,green,right,critical,incongruent,,word,800,"left up right",2,,,,,800,48,16.67,78271,right,573,1,
425529_260414_134603.csv,Chrome,146.0.0.0,1710,1112,MacOS,en-GB,2026-04-14_13:43:45,2026-04-14_14:43:45,2026-04-14_13:37:17,https://www.testable.org/experiment/20535/425529/start,138.095,138095,2.3015,60,test,RED,red,left,critical,congruent,,word,800,"left up right",2,,,,,800,48,16.67,79599,left,535,1,
425529_260414_134603.csv,Chrome,146.0.0.0,1710,1112,MacOS,en-GB,2026-04-14_13:43:45,2026-04-14_14:43:45,2026-04-14_13:37:17,https://www.testable.org/experiment/20535/425529/start,138.095,138095,2.3015,70,test,BLUE,green,right,critical,incongruent,,word,800,"left up right",2,,,,,800,48,16.67,81542,right,1145,1,
425529_260414_134603.csv,Chrome,146.0.0.0,1710,1112,MacOS,en-GB,2026-04-14_13:43:45,2026-04-14_14:43:45,2026-04-14_13:37:17,https://www.testable.org/experiment/20535/425529/start,138.095,138095,2.3015,71,test,BLUE,red,left,critical,incongruent,,word,800,"left up right",2,,,,,800,48,16.67,83115,left,785,1,
425529_260414_134603.csv,Chrome,146.0.0.0,1710,1112,MacOS,en-GB,2026-04-14_13:43:45,2026-04-14_14:43:45,2026-04-14_13:37:17,https://www.testable.org/experiment/20535/425529/start,138.095,138095,2.3015,50,test,GREEN,green,right,critical,congruent,,word,800,"left up right",2,,,,,800,48,16.66,84603,right,689,1,
425529_260414_134603.csv,Chrome,146.0.0.0,1710,1112,MacOS,en-GB,2026-04-14_13:43:45,2026-04-14_14:43:45,2026-04-14_13:37:17,https://www.testable.org/experiment/20535/425529/start,138.095,138095,2.3015,69,test,RED,blue,up,critical,incongruent,,word,800,"left up right",2,,,,,800,48,16.67,86218,up,821,1,
425529_260414_134603.csv,Chrome,146.0.0.0,1710,1112,MacOS,en-GB,2026-04-14_13:43:45,2026-04-14_14:43:45,2026-04-14_13:37:17,https://www.testable.org/experiment/20535/425529/start,138.095,138095,2.3015,58,test,RED,red,left,critical,congruent,,word,800,"left up right",2,,,,,800,48,16.67,87779,left,766,1,
425529_260414_134603.csv,Chrome,146.0.0.0,1710,1112,MacOS,en-GB,2026-04-14_13:43:45,2026-04-14_14:43:45,2026-04-14_13:37:17,https://www.testable.org/experiment/20535/425529/start,138.095,138095,2.3015,67,test,GREEN,green,right,critical,congruent,,word,800,"left up right",2,,,,,800,48,16.67,89520,right,939,1,
425529_260414_134603.csv,Chrome,146.0.0.0,1710,1112,MacOS,en-GB,2026-04-14_13:43:45,2026-04-14_14:43:45,2026-04-14_13:37:17,https://www.testable.org/experiment/20535/425529/start,138.095,138095,2.3015,54,test,SHOE,blue,up,fillers,NA,,word,800,"left up right",2,,,,,801,48,16.68,90925,up,611,1,
425529_260414_134603.csv,Chrome,146.0.0.0,1710,1112,MacOS,en-GB,2026-04-14_13:43:45,2026-04-14_14:43:45,2026-04-14_13:37:17,https://www.testable.org/experiment/20535/425529/start,138.095,138095,2.3015,66,test,GREEN,green,right,critical,congruent,,word,800,"left up right",2,,,,,800,48,16.67,92519,right,805,1,
425529_260414_134603.csv,Chrome,146.0.0.0,1710,1112,MacOS,en-GB,2026-04-14_13:43:45,2026-04-14_14:43:45,2026-04-14_13:37:17,https://www.testable.org/experiment/20535/425529/start,138.095,138095,2.3015,77,test,CAR,blue,up,fillers,NA,,word,800,"left up right",2,,,,,800,48,16.67,93992,up,678,1,
425529_260414_134603.csv,Chrome,146.0.0.0,1710,1112,MacOS,en-GB,2026-04-14_13:43:45,2026-04-14_14:43:45,2026-04-14_13:37:17,https://www.testable.org/experiment/20535/425529/start,138.095,138095,2.3015,59,test,RED,red,left,critical,congruent,,word,800,"left up right",2,,,,,800,48,16.66,95259,left,479,1,
425529_260414_134603.csv,Chrome,146.0.0.0,1710,1112,MacOS,en-GB,2026-04-14_13:43:45,2026-04-14_14:43:45,2026-04-14_13:37:17,https://www.testable.org/experiment/20535/425529/start,138.095,138095,2.3015,80,test,HOUSE,green,right,fillers,NA,,word,800,"left up right",2,,,,,800,48,16.66,96687,right,640,1,
425529_260414_134603.csv,Chrome,146.0.0.0,1710,1112,MacOS,en-GB,2026-04-14_13:43:45,2026-04-14_14:43:45,2026-04-14_13:37:17,https://www.testable.org/experiment/20535/425529/start,138.095,138095,2.3015,63,test,BLUE,blue,up,critical,congruent,,word,800,"left up right",2,,,,,800,48,16.67,98167,up,686,1,
425529_260414_134603.csv,Chrome,146.0.0.0,1710,1112,MacOS,en-GB,2026-04-14_13:43:45,2026-04-14_14:43:45,2026-04-14_13:37:17,https://www.testable.org/experiment/20535/425529/start,138.095,138095,2.3015,64,test,BLUE,blue,up,critical,congruent,,word,800,"left up right",2,,,,,800,48,16.67,99539,up,575,1,
425529_260414_134603.csv,Chrome,146.0.0.0,1710,1112,MacOS,en-GB,2026-04-14_13:43:45,2026-04-14_14:43:45,2026-04-14_13:37:17,https://www.testable.org/experiment/20535/425529/start,138.095,138095,2.3015,55,test,SHOE,red,left,fillers,NA,,word,800,"left up right",2,,,,,800,48,16.67,101038,left,708,1,
425529_260414_134603.csv,Chrome,146.0.0.0,1710,1112,MacOS,en-GB,2026-04-14_13:43:45,2026-04-14_14:43:45,2026-04-14_13:37:17,https://www.testable.org/experiment/20535/425529/start,138.095,138095,2.3015,78,test,SHOE,blue,up,fillers,NA,,word,800,"left up right",2,,,,,800,48,16.67,102796,right,966,0,
425529_260414_134603.csv,Chrome,146.0.0.0,1710,1112,MacOS,en-GB,2026-04-14_13:43:45,2026-04-14_14:43:45,2026-04-14_13:37:17,https://www.testable.org/experiment/20535/425529/start,138.095,138095,2.3015,79,test,SHOE,green,right,fillers,NA,,word,800,"left up right",2,,,,,800,48,16.66,104631,right,1034,1,
425529_260414_134603.csv,Chrome,146.0.0.0,1710,1112,MacOS,en-GB,2026-04-14_13:43:45,2026-04-14_14:43:45,2026-04-14_13:37:17,https://www.testable.org/experiment/20535/425529/start,138.095,138095,2.3015,73,test,GREEN,red,left,critical,incongruent,,word,800,"left up right",2,,,,,800,48,16.66,106569,left,1138,1,
425529_260414_134603.csv,Chrome,146.0.0.0,1710,1112,MacOS,en-GB,2026-04-14_13:43:45,2026-04-14_14:43:45,2026-04-14_13:37:17,https://www.testable.org/experiment/20535/425529/start,138.095,138095,2.3015,68,test,RED,green,right,critical,incongruent,,word,800,"left up right",2,,,,,800,48,16.67,108474,right,1111,1,
425529_260414_134603.csv,Chrome,146.0.0.0,1710,1112,MacOS,en-GB,2026-04-14_13:43:45,2026-04-14_14:43:45,2026-04-14_13:37:17,https://www.testable.org/experiment/20535/425529/start,138.095,138095,2.3015,75,test,GREEN,red,left,critical,incongruent,,word,800,"left up right",2,,,,,800,48,16.67,110022,left,759,1,
425529_260414_134603.csv,Chrome,146.0.0.0,1710,1112,MacOS,en-GB,2026-04-14_13:43:45,2026-04-14_14:43:45,2026-04-14_13:37:17,https://www.testable.org/experiment/20535/425529/start,138.095,138095,2.3015,65,test,GREEN,green,right,critical,congruent,,word,800,"left up right",2,,,,,800,48,16.66,111454,right,641,1,
425529_260414_134603.csv,Chrome,146.0.0.0,1710,1112,MacOS,en-GB,2026-04-14_13:43:45,2026-04-14_14:43:45,2026-04-14_13:37:17,https://www.testable.org/experiment/20535/425529/start,138.095,138095,2.3015,52,test,CAR,red,left,fillers,NA,,word,800,"left up right",2,,,,,800,48,16.67,112958,left,711,1,
425529_260414_134603.csv,Chrome,146.0.0.0,1710,1112,MacOS,en-GB,2026-04-14_13:43:45,2026-04-14_14:43:45,2026-04-14_13:37:17,https://www.testable.org/experiment/20535/425529/start,138.095,138095,2.3015,81,test,HOUSE,red,left,fillers,NA,,word,800,"left up right",2,,,,,800,48,16.66,114340,left,593,1,
425529_260414_134603.csv,Chrome,146.0.0.0,1710,1112,MacOS,en-GB,2026-04-14_13:43:45,2026-04-14_14:43:45,2026-04-14_13:37:17,https://www.testable.org/experiment/20535/425529/start,138.095,138095,2.3015,74,test,GREEN,blue,up,critical,incongruent,,word,800,"left up right",2,,,,,800,48,16.67,115919,up,789,1,
425529_260414_134603.csv,Chrome,146.0.0.0,1710,1112,MacOS,en-GB,2026-04-14_13:43:45,2026-04-14_14:43:45,2026-04-14_13:37:17,https://www.testable.org/experiment/20535/425529/start,138.095,138095,2.3015,48,test,BLUE,blue,up,critical,congruent,,word,800,"left up right",2,,,,,801,48,16.68,117243,up,530,1,
425529_260414_134603.csv,Chrome,146.0.0.0,1710,1112,MacOS,en-GB,2026-04-14_13:43:45,2026-04-14_14:43:45,2026-04-14_13:37:17,https://www.testable.org/experiment/20535/425529/start,138.095,138095,2.3015,57,test,HOUSE,blue,up,fillers,NA,,word,800,"left up right",2,,,,,800,48,16.67,118488,up,458,1,
425529_260414_134603.csv,Chrome,146.0.0.0,1710,1112,MacOS,en-GB,2026-04-14_13:43:45,2026-04-14_14:43:45,2026-04-14_13:37:17,https://www.testable.org/experiment/20535/425529/start,138.095,138095,2.3015,49,test,BLUE,red,left,critical,incongruent,,word,800,"left up right",2,,,,,799,48,16.65,120359,left,1078,1,
425529_260414_134603.csv,Chrome,146.0.0.0,1710,1112,MacOS,en-GB,2026-04-14_13:43:45,2026-04-14_14:43:45,2026-04-14_13:37:17,https://www.testable.org/experiment/20535/425529/start,138.095,138095,2.3015,61,test,RED,blue,up,critical,incongruent,,word,800,"left up right",2,,,,,800,48,16.67,122279,up,1133,1,
425529_260414_134603.csv,Chrome,146.0.0.0,1710,1112,MacOS,en-GB,2026-04-14_13:43:45,2026-04-14_14:43:45,2026-04-14_13:37:17,https://www.testable.org/experiment/20535/425529/start,138.095,138095,2.3015,62,test,BLUE,blue,up,critical,congruent,,word,800,"left up right",2,,,,,800,48,16.67,123642,up,562,1,
425529_260414_134603.csv,Chrome,146.0.0.0,1710,1112,MacOS,en-GB,2026-04-14_13:43:45,2026-04-14_14:43:45,2026-04-14_13:37:17,https://www.testable.org/experiment/20535/425529/start,138.095,138095,2.3015,51,test,GREEN,blue,up,critical,incongruent,,word,800,"left up right",2,,,,,800,48,16.67,124882,up,452,1,
425529_260414_134603.csv,Chrome,146.0.0.0,1710,1112,MacOS,en-GB,2026-04-14_13:43:45,2026-04-14_14:43:45,2026-04-14_13:37:17,https://www.testable.org/experiment/20535/425529/start,138.095,138095,2.3015,56,test,HOUSE,green,right,fillers,NA,,word,800,"left up right",2,,,,,800,48,16.67,126505,right,825,1,
425529_260414_134603.csv,Chrome,146.0.0.0,1710,1112,MacOS,en-GB,2026-04-14_13:43:45,2026-04-14_14:43:45,2026-04-14_13:37:17,https://www.testable.org/experiment/20535/425529/start,138.095,138095,2.3015,76,test,CAR,red,left,fillers,NA,,word,800,"left up right",2,,,,,800,48,16.67,128082,left,785,1,
425529_260414_134603.csv,Chrome,146.0.0.0,1710,1112,MacOS,en-GB,2026-04-14_13:43:45,2026-04-14_14:43:45,2026-04-14_13:37:17,https://www.testable.org/experiment/20535/425529/start,138.095,138095,2.3015,53,test,CAR,green,right,fillers,NA,,word,800,"left up right",2,,,,,800,48,16.66,130340,right,1460,1,
425529_260414_134603.csv,Chrome,146.0.0.0,1710,1112,MacOS,en-GB,2026-04-14_13:43:45,2026-04-14_14:43:45,2026-04-14_13:37:17,https://www.testable.org/experiment/20535/425529/start,138.095,138095,2.3015,47,test,RED,green,right,critical,incongruent,,word,800,"left up right",2,,,,,800,48,16.67,132264,right,1134,1,
425529_260414_134603.csv,Chrome,146.0.0.0,1710,1112,MacOS,en-GB,2026-04-14_13:43:45,2026-04-14_14:43:45,2026-04-14_13:37:17,https://www.testable.org/experiment/20535/425529/start,138.095,138095,2.3015,46,test,RED,red,left,critical,congruent,,word,800,"left up right",2,,,,,800,48,16.67,133698,left,635,1,
425529_260414_134603.csv,Chrome,146.0.0.0,1710,1112,MacOS,en-GB,2026-04-14_13:43:45,2026-04-14_14:43:45,2026-04-14_13:37:17,https://www.testable.org/experiment/20535/425529/start,138.095,138095,2.3015,82,form,,,,,,,,,,,"Are you a native speaker of English?",radio,Yes;No,"It’s a bit complicated (Let me explain!)",800,,,138095,Yes,3875,0,1
425529_260414_134603.csv,Chrome,146.0.0.0,1710,1112,MacOS,en-GB,2026-04-14_13:43:45,2026-04-14_14:43:45,2026-04-14_13:37:17,https://www.testable.org/experiment/20535/425529/start,138.095,138095,2.3015,83,form,,,,,,,,,,,"How would you rate your proficiency in English?",radio,"Beginner; Intermediate; Advanced; Native / near-native",,800,,,138095,"Native / near-native",3875,0,4
425529_260415_073521.csv,Safari,17.6,1470,956,MacOS,en-AU,2026-04-15_07:32:16,2026-04-15_17:02:16,2026-04-14_21:49:27,https://www.testable.org/experiment/20535/425529/start,184.601,184601,3.0766,3,test,CAR,green,right,practice,NA,"correct: That's correct! You responded in %RT% milliseconds:\nincorrect: Incorrect... You responded in %RT% milliseconds",word,800,"left up right",,,,,,800,48,16.67,43239,right,1406,1,
425529_260415_073521.csv,Safari,17.6,1470,956,MacOS,en-AU,2026-04-15_07:32:16,2026-04-15_17:02:16,2026-04-14_21:49:27,https://www.testable.org/experiment/20535/425529/start,184.601,184601,3.0766,4,test,SHOE,blue,up,practice,NA,"correct: That's correct! You responded in %RT% milliseconds:\nincorrect: Incorrect... You responded in %RT% milliseconds",word,800,"left up right",,,,,,800,48,16.67,50666,left,517,0,
425529_260415_073521.csv,Safari,17.6,1470,956,MacOS,en-AU,2026-04-15_07:32:16,2026-04-15_17:02:16,2026-04-14_21:49:27,https://www.testable.org/experiment/20535/425529/start,184.601,184601,3.0766,5,test,RED,red,left,practice,congruent,"correct: That's correct! You responded in %RT% milliseconds:\nincorrect: Incorrect... You responded in %RT% milliseconds",word,800,"left up right",,,,,,800,48,16.67,52678,left,1212,1,
425529_260415_073521.csv,Safari,17.6,1470,956,MacOS,en-AU,2026-04-15_07:32:16,2026-04-15_17:02:16,2026-04-14_21:49:27,https://www.testable.org/experiment/20535/425529/start,184.601,184601,3.0766,6,test,HOUSE,blue,up,practice,NA,"correct: That's correct! You responded in %RT% milliseconds:\nincorrect: Incorrect... You responded in %RT% milliseconds",word,800,"left up right",,,,,,800,48,16.67,58074,up,591,1,
425529_260415_073521.csv,Safari,17.6,1470,956,MacOS,en-AU,2026-04-15_07:32:16,2026-04-15_17:02:16,2026-04-14_21:49:27,https://www.testable.org/experiment/20535/425529/start,184.601,184601,3.0766,7,test,BLUE,green,right,practice,incongruent,"correct: That's correct! You responded in %RT% milliseconds:\nincorrect: Incorrect... The word was ""BLUE"" but it was in GREEN. You responded in %RT% milliseconds",word,800,"left up right",,,,,,800,48,16.67,61464,right,1165,1,
425529_260415_073521.csv,Safari,17.6,1470,956,MacOS,en-AU,2026-04-15_07:32:16,2026-04-15_17:02:16,2026-04-14_21:49:27,https://www.testable.org/experiment/20535/425529/start,184.601,184601,3.0766,8,test,GREEN,red,left,practice,incongruent,"correct: That's correct! You responded in %RT% milliseconds:\nincorrect: Incorrect... The word was GREEN but it was in RED. You responded in %RT% milliseconds",word,800,"left up right",,,,,,800,48,16.67,63839,left,857,1,
425529_260415_073521.csv,Safari,17.6,1470,956,MacOS,en-AU,2026-04-15_07:32:16,2026-04-15_17:02:16,2026-04-14_21:49:27,https://www.testable.org/experiment/20535/425529/start,184.601,184601,3.0766,12,test,RED,red,left,critical,congruent,,word,800,"left up right",1,,,,,801,48,16.69,74196,left,465,1,
425529_260415_073521.csv,Safari,17.6,1470,956,MacOS,en-AU,2026-04-15_07:32:16,2026-04-15_17:02:16,2026-04-14_21:49:27,https://www.testable.org/experiment/20535/425529/start,184.601,184601,3.0766,43,test,HOUSE,blue,up,fillers,NA,,word,800,"left up right",1,,,,,800,48,16.67,75492,up,510,1,
425529_260415_073521.csv,Safari,17.6,1470,956,MacOS,en-AU,2026-04-15_07:32:16,2026-04-15_17:02:16,2026-04-14_21:49:27,https://www.testable.org/experiment/20535/425529/start,184.601,184601,3.0766,45,test,HOUSE,green,right,fillers,NA,,word,800,"left up right",1,,,,,800,48,16.67,76862,right,580,1,
425529_260415_073521.csv,Safari,17.6,1470,956,MacOS,en-AU,2026-04-15_07:32:16,2026-04-15_17:02:16,2026-04-14_21:49:27,https://www.testable.org/experiment/20535/425529/start,184.601,184601,3.0766,13,test,RED,red,left,critical,congruent,,word,800,"left up right",1,,,,,800,48,16.67,78091,left,442,1,
425529_260415_073521.csv,Safari,17.6,1470,956,MacOS,en-AU,2026-04-15_07:32:16,2026-04-15_17:02:16,2026-04-14_21:49:27,https://www.testable.org/experiment/20535/425529/start,184.601,184601,3.0766,28,test,GREEN,green,right,critical,congruent,,word,800,"left up right",1,,,,,800,48,16.67,79389,right,507,1,
425529_260415_073521.csv,Safari,17.6,1470,956,MacOS,en-AU,2026-04-15_07:32:16,2026-04-15_17:02:16,2026-04-14_21:49:27,https://www.testable.org/experiment/20535/425529/start,184.601,184601,3.0766,33,test,GREEN,blue,up,critical,incongruent,,word,800,"left up right",1,,,,,800,48,16.67,80721,up,539,1,
425529_260415_073521.csv,Safari,17.6,1470,956,MacOS,en-AU,2026-04-15_07:32:16,2026-04-15_17:02:16,2026-04-14_21:49:27,https://www.testable.org/experiment/20535/425529/start,184.601,184601,3.0766,17,test,RED,blue,up,critical,incongruent,,word,800,"left up right",1,,,,,800,48,16.67,82184,up,668,1,
425529_260415_073521.csv,Safari,17.6,1470,956,MacOS,en-AU,2026-04-15_07:32:16,2026-04-15_17:02:16,2026-04-14_21:49:27,https://www.testable.org/experiment/20535/425529/start,184.601,184601,3.0766,10,test,RED,red,left,critical,congruent,,word,800,"left up right",1,,,,,800,48,16.67,83567,right,585,0,
425529_260415_073521.csv,Safari,17.6,1470,956,MacOS,en-AU,2026-04-15_07:32:16,2026-04-15_17:02:16,2026-04-14_21:49:27,https://www.testable.org/experiment/20535/425529/start,184.601,184601,3.0766,21,test,BLUE,blue,up,critical,congruent,,word,800,"left up right",1,,,,,800,48,16.67,85020,up,655,1,
425529_260415_073521.csv,Safari,17.6,1470,956,MacOS,en-AU,2026-04-15_07:32:16,2026-04-15_17:02:16,2026-04-14_21:49:27,https://www.testable.org/experiment/20535/425529/start,184.601,184601,3.0766,16,test,RED,green,right,critical,incongruent,,word,800,"left up right",1,,,,,800,48,16.67,86462,right,648,1,
425529_260415_073521.csv,Safari,17.6,1470,956,MacOS,en-AU,2026-04-15_07:32:16,2026-04-15_17:02:16,2026-04-14_21:49:27,https://www.testable.org/experiment/20535/425529/start,184.601,184601,3.0766,36,test,CAR,blue,up,fillers,NA,,word,800,"left up right",1,,,,,800,48,16.67,87870,up,621,1,
425529_260415_073521.csv,Safari,17.6,1470,956,MacOS,en-AU,2026-04-15_07:32:16,2026-04-15_17:02:16,2026-04-14_21:49:27,https://www.testable.org/experiment/20535/425529/start,184.601,184601,3.0766,29,test,GREEN,green,right,critical,congruent,,word,800,"left up right",1,,,,,800,48,16.67,89282,right,617,1,
425529_260415_073521.csv,Safari,17.6,1470,956,MacOS,en-AU,2026-04-15_07:32:16,2026-04-15_17:02:16,2026-04-14_21:49:27,https://www.testable.org/experiment/20535/425529/start,184.601,184601,3.0766,39,test,SHOE,red,left,fillers,NA,,word,800,"left up right",1,,,,,800,48,16.67,90617,left,535,1,
425529_260415_073521.csv,Safari,17.6,1470,956,MacOS,en-AU,2026-04-15_07:32:16,2026-04-15_17:02:16,2026-04-14_21:49:27,https://www.testable.org/experiment/20535/425529/start,184.601,184601,3.0766,41,test,SHOE,blue,up,fillers,NA,,word,800,"left up right",1,,,,,800,48,16.67,91875,up,460,1,
425529_260415_073521.csv,Safari,17.6,1470,956,MacOS,en-AU,2026-04-15_07:32:16,2026-04-15_17:02:16,2026-04-14_21:49:27,https://www.testable.org/experiment/20535/425529/start,184.601,184601,3.0766,22,test,BLUE,red,left,critical,incongruent,,word,800,"left up right",1,,,,,800,48,16.67,93158,right,493,0,
425529_260415_073521.csv,Safari,17.6,1470,956,MacOS,en-AU,2026-04-15_07:32:16,2026-04-15_17:02:16,2026-04-14_21:49:27,https://www.testable.org/experiment/20535/425529/start,184.601,184601,3.0766,44,test,HOUSE,red,left,fillers,NA,,word,800,"left up right",1,,,,,800,48,16.67,94577,left,629,1,
425529_260415_073521.csv,Safari,17.6,1470,956,MacOS,en-AU,2026-04-15_07:32:16,2026-04-15_17:02:16,2026-04-14_21:49:27,https://www.testable.org/experiment/20535/425529/start,184.601,184601,3.0766,11,test,RED,red,left,critical,congruent,,word,800,"left up right",1,,,,,800,48,16.67,95929,left,564,1,
425529_260415_073521.csv,Safari,17.6,1470,956,MacOS,en-AU,2026-04-15_07:32:16,2026-04-15_17:02:16,2026-04-14_21:49:27,https://www.testable.org/experiment/20535/425529/start,184.601,184601,3.0766,14,test,RED,green,right,critical,incongruent,,word,800,"left up right",1,,,,,800,48,16.67,97606,right,891,1,
425529_260415_073521.csv,Safari,17.6,1470,956,MacOS,en-AU,2026-04-15_07:32:16,2026-04-15_17:02:16,2026-04-14_21:49:27,https://www.testable.org/experiment/20535/425529/start,184.601,184601,3.0766,37,test,CAR,red,left,fillers,NA,,word,800,"left up right",1,,,,,801,48,16.69,98889,left,490,1,
425529_260415_073521.csv,Safari,17.6,1470,956,MacOS,en-AU,2026-04-15_07:32:16,2026-04-15_17:02:16,2026-04-14_21:49:27,https://www.testable.org/experiment/20535/425529/start,184.601,184601,3.0766,15,test,RED,blue,up,critical,incongruent,,word,800,"left up right",1,,,,,800,48,16.67,100493,up,811,1,
425529_260415_073521.csv,Safari,17.6,1470,956,MacOS,en-AU,2026-04-15_07:32:16,2026-04-15_17:02:16,2026-04-14_21:49:27,https://www.testable.org/experiment/20535/425529/start,184.601,184601,3.0766,38,test,SHOE,blue,up,fillers,NA,,word,800,"left up right",1,,,,,800,48,16.67,102172,up,891,1,
425529_260415_073521.csv,Safari,17.6,1470,956,MacOS,en-AU,2026-04-15_07:32:16,2026-04-15_17:02:16,2026-04-14_21:49:27,https://www.testable.org/experiment/20535/425529/start,184.601,184601,3.0766,34,test,CAR,red,left,fillers,NA,,word,800,"left up right",1,,,,,800,48,16.67,103464,left,499,1,
425529_260415_073521.csv,Safari,17.6,1470,956,MacOS,en-AU,2026-04-15_07:32:16,2026-04-15_17:02:16,2026-04-14_21:49:27,https://www.testable.org/experiment/20535/425529/start,184.601,184601,3.0766,23,test,BLUE,green,right,critical,incongruent,,word,800,"left up right",1,,,,,800,48,16.67,104955,right,690,1,
425529_260415_073521.csv,Safari,17.6,1470,956,MacOS,en-AU,2026-04-15_07:32:16,2026-04-15_17:02:16,2026-04-14_21:49:27,https://www.testable.org/experiment/20535/425529/start,184.601,184601,3.0766,31,test,GREEN,blue,up,critical,incongruent,,word,800,"left up right",1,,,,,800,48,16.67,106344,up,595,1,
425529_260415_073521.csv,Safari,17.6,1470,956,MacOS,en-AU,2026-04-15_07:32:16,2026-04-15_17:02:16,2026-04-14_21:49:27,https://www.testable.org/experiment/20535/425529/start,184.601,184601,3.0766,25,test,BLUE,green,right,critical,incongruent,,word,800,"left up right",1,,,,,800,48,16.67,107474,left,343,0,
425529_260415_073521.csv,Safari,17.6,1470,956,MacOS,en-AU,2026-04-15_07:32:16,2026-04-15_17:02:16,2026-04-14_21:49:27,https://www.testable.org/experiment/20535/425529/start,184.601,184601,3.0766,30,test,GREEN,red,left,critical,incongruent,,word,800,"left up right",1,,,,,801,48,16.69,108672,left,407,1,
425529_260415_073521.csv,Safari,17.6,1470,956,MacOS,en-AU,2026-04-15_07:32:16,2026-04-15_17:02:16,2026-04-14_21:49:27,https://www.testable.org/experiment/20535/425529/start,184.601,184601,3.0766,24,test,BLUE,red,left,critical,incongruent,,word,800,"left up right",1,,,,,800,48,16.67,110413,left,948,1,
425529_260415_073521.csv,Safari,17.6,1470,956,MacOS,en-AU,2026-04-15_07:32:16,2026-04-15_17:02:16,2026-04-14_21:49:27,https://www.testable.org/experiment/20535/425529/start,184.601,184601,3.0766,20,test,BLUE,blue,up,critical,congruent,,word,800,"left up right",1,,,,,800,48,16.67,111614,up,400,1,
425529_260415_073521.csv,Safari,17.6,1470,956,MacOS,en-AU,2026-04-15_07:32:16,2026-04-15_17:02:16,2026-04-14_21:49:27,https://www.testable.org/experiment/20535/425529/start,184.601,184601,3.0766,19,test,BLUE,blue,up,critical,congruent,,word,800,"left up right",1,,,,,800,48,16.67,112831,up,416,1,
425529_260415_073521.csv,Safari,17.6,1470,956,MacOS,en-AU,2026-04-15_07:32:16,2026-04-15_17:02:16,2026-04-14_21:49:27,https://www.testable.org/experiment/20535/425529/start,184.601,184601,3.0766,42,test,HOUSE,green,right,fillers,NA,,word,800,"left up right",1,,,,,800,48,16.67,114219,right,587,1,
425529_260415_073521.csv,Safari,17.6,1470,956,MacOS,en-AU,2026-04-15_07:32:16,2026-04-15_17:02:16,2026-04-14_21:49:27,https://www.testable.org/experiment/20535/425529/start,184.601,184601,3.0766,18,test,BLUE,blue,up,critical,congruent,,word,800,"left up right",1,,,,,800,48,16.67,115457,up,442,1,
425529_260415_073521.csv,Safari,17.6,1470,956,MacOS,en-AU,2026-04-15_07:32:16,2026-04-15_17:02:16,2026-04-14_21:49:27,https://www.testable.org/experiment/20535/425529/start,184.601,184601,3.0766,27,test,GREEN,green,right,critical,congruent,,word,800,"left up right",1,,,,,800,48,16.67,116736,right,488,1,
425529_260415_073521.csv,Safari,17.6,1470,956,MacOS,en-AU,2026-04-15_07:32:16,2026-04-15_17:02:16,2026-04-14_21:49:27,https://www.testable.org/experiment/20535/425529/start,184.601,184601,3.0766,26,test,GREEN,green,right,critical,congruent,,word,800,"left up right",1,,,,,800,48,16.67,117946,right,415,1,
425529_260415_073521.csv,Safari,17.6,1470,956,MacOS,en-AU,2026-04-15_07:32:16,2026-04-15_17:02:16,2026-04-14_21:49:27,https://www.testable.org/experiment/20535/425529/start,184.601,184601,3.0766,32,test,GREEN,red,left,critical,incongruent,,word,800,"left up right",1,,,,,800,48,16.67,119293,left,545,1,
425529_260415_073521.csv,Safari,17.6,1470,956,MacOS,en-AU,2026-04-15_07:32:16,2026-04-15_17:02:16,2026-04-14_21:49:27,https://www.testable.org/experiment/20535/425529/start,184.601,184601,3.0766,35,test,CAR,green,right,fillers,NA,,word,800,"left up right",1,,,,,799,48,16.65,120712,right,631,1,
425529_260415_073521.csv,Safari,17.6,1470,956,MacOS,en-AU,2026-04-15_07:32:16,2026-04-15_17:02:16,2026-04-14_21:49:27,https://www.testable.org/experiment/20535/425529/start,184.601,184601,3.0766,40,test,SHOE,green,right,fillers,NA,,word,800,"left up right",1,,,,,800,48,16.67,122075,right,577,1,
425529_260415_073521.csv,Safari,17.6,1470,956,MacOS,en-AU,2026-04-15_07:32:16,2026-04-15_17:02:16,2026-04-14_21:49:27,https://www.testable.org/experiment/20535/425529/start,184.601,184601,3.0766,52,test,CAR,red,left,fillers,NA,,word,800,"left up right",2,,,,,801,48,16.69,123515,left,650,1,
425529_260415_073521.csv,Safari,17.6,1470,956,MacOS,en-AU,2026-04-15_07:32:16,2026-04-15_17:02:16,2026-04-14_21:49:27,https://www.testable.org/experiment/20535/425529/start,184.601,184601,3.0766,61,test,RED,blue,up,critical,incongruent,,word,800,"left up right",2,,,,,800,48,16.67,124764,up,449,1,
425529_260415_073521.csv,Safari,17.6,1470,956,MacOS,en-AU,2026-04-15_07:32:16,2026-04-15_17:02:16,2026-04-14_21:49:27,https://www.testable.org/experiment/20535/425529/start,184.601,184601,3.0766,51,test,GREEN,blue,up,critical,incongruent,,word,800,"left up right",2,,,,,799,48,16.65,126015,right,451,0,
425529_260415_073521.csv,Safari,17.6,1470,956,MacOS,en-AU,2026-04-15_07:32:16,2026-04-15_17:02:16,2026-04-14_21:49:27,https://www.testable.org/experiment/20535/425529/start,184.601,184601,3.0766,58,test,RED,red,left,critical,congruent,,word,800,"left up right",2,,,,,800,48,16.67,127282,left,467,1,
425529_260415_073521.csv,Safari,17.6,1470,956,MacOS,en-AU,2026-04-15_07:32:16,2026-04-15_17:02:16,2026-04-14_21:49:27,https://www.testable.org/experiment/20535/425529/start,184.601,184601,3.0766,78,test,SHOE,blue,up,fillers,NA,,word,800,"left up right",2,,,,,800,48,16.67,128733,up,652,1,
425529_260415_073521.csv,Safari,17.6,1470,956,MacOS,en-AU,2026-04-15_07:32:16,2026-04-15_17:02:16,2026-04-14_21:49:27,https://www.testable.org/experiment/20535/425529/start,184.601,184601,3.0766,57,test,HOUSE,blue,up,fillers,NA,,word,800,"left up right",2,,,,,800,48,16.67,130036,left,504,0,
425529_260415_073521.csv,Safari,17.6,1470,956,MacOS,en-AU,2026-04-15_07:32:16,2026-04-15_17:02:16,2026-04-14_21:49:27,https://www.testable.org/experiment/20535/425529/start,184.601,184601,3.0766,54,test,SHOE,blue,up,fillers,NA,,word,800,"left up right",2,,,,,803,48,16.73,131395,up,561,1,
425529_260415_073521.csv,Safari,17.6,1470,956,MacOS,en-AU,2026-04-15_07:32:16,2026-04-15_17:02:16,2026-04-14_21:49:27,https://www.testable.org/experiment/20535/425529/start,184.601,184601,3.0766,66,test,GREEN,green,right,critical,congruent,,word,800,"left up right",2,,,,,800,48,16.67,132843,right,661,1,
425529_260415_073521.csv,Safari,17.6,1470,956,MacOS,en-AU,2026-04-15_07:32:16,2026-04-15_17:02:16,2026-04-14_21:49:27,https://www.testable.org/experiment/20535/425529/start,184.601,184601,3.0766,74,test,GREEN,blue,up,critical,incongruent,,word,800,"left up right",2,,,,,800,48,16.67,134503,up,872,1,
425529_260415_073521.csv,Safari,17.6,1470,956,MacOS,en-AU,2026-04-15_07:32:16,2026-04-15_17:02:16,2026-04-14_21:49:27,https://www.testable.org/experiment/20535/425529/start,184.601,184601,3.0766,70,test,BLUE,green,right,critical,incongruent,,word,800,"left up right",2,,,,,800,48,16.67,136081,right,783,1,
425529_260415_073521.csv,Safari,17.6,1470,956,MacOS,en-AU,2026-04-15_07:32:16,2026-04-15_17:02:16,2026-04-14_21:49:27,https://www.testable.org/experiment/20535/425529/start,184.601,184601,3.0766,60,test,RED,red,left,critical,congruent,,word,800,"left up right",2,,,,,799,48,16.65,137410,left,529,1,
425529_260415_073521.csv,Safari,17.6,1470,956,MacOS,en-AU,2026-04-15_07:32:16,2026-04-15_17:02:16,2026-04-14_21:49:27,https://www.testable.org/experiment/20535/425529/start,184.601,184601,3.0766,50,test,GREEN,green,right,critical,congruent,,word,800,"left up right",2,,,,,800,48,16.67,138644,right,446,1,
425529_260415_073521.csv,Safari,17.6,1470,956,MacOS,en-AU,2026-04-15_07:32:16,2026-04-15_17:02:16,2026-04-14_21:49:27,https://www.testable.org/experiment/20535/425529/start,184.601,184601,3.0766,76,test,CAR,red,left,fillers,NA,,word,800,"left up right",2,,,,,800,48,16.67,139983,left,552,1,
425529_260415_073521.csv,Safari,17.6,1470,956,MacOS,en-AU,2026-04-15_07:32:16,2026-04-15_17:02:16,2026-04-14_21:49:27,https://www.testable.org/experiment/20535/425529/start,184.601,184601,3.0766,56,test,HOUSE,green,right,fillers,NA,,word,800,"left up right",2,,,,,800,48,16.67,141337,right,554,1,
425529_260415_073521.csv,Safari,17.6,1470,956,MacOS,en-AU,2026-04-15_07:32:16,2026-04-15_17:02:16,2026-04-14_21:49:27,https://www.testable.org/experiment/20535/425529/start,184.601,184601,3.0766,65,test,GREEN,green,right,critical,congruent,,word,800,"left up right",2,,,,,800,48,16.67,142544,right,413,1,
425529_260415_073521.csv,Safari,17.6,1470,956,MacOS,en-AU,2026-04-15_07:32:16,2026-04-15_17:02:16,2026-04-14_21:49:27,https://www.testable.org/experiment/20535/425529/start,184.601,184601,3.0766,72,test,BLUE,green,right,critical,incongruent,,word,800,"left up right",2,,,,,800,48,16.67,143735,right,404,1,
425529_260415_073521.csv,Safari,17.6,1470,956,MacOS,en-AU,2026-04-15_07:32:16,2026-04-15_17:02:16,2026-04-14_21:49:27,https://www.testable.org/experiment/20535/425529/start,184.601,184601,3.0766,80,test,HOUSE,green,right,fillers,NA,,word,800,"left up right",2,,,,,799,48,16.65,144973,left,442,0,
425529_260415_073521.csv,Safari,17.6,1470,956,MacOS,en-AU,2026-04-15_07:32:16,2026-04-15_17:02:16,2026-04-14_21:49:27,https://www.testable.org/experiment/20535/425529/start,184.601,184601,3.0766,64,test,BLUE,blue,up,critical,congruent,,word,800,"left up right",2,,,,,800,48,16.67,146321,left,556,0,
425529_260415_073521.csv,Safari,17.6,1470,956,MacOS,en-AU,2026-04-15_07:32:16,2026-04-15_17:02:16,2026-04-14_21:49:27,https://www.testable.org/experiment/20535/425529/start,184.601,184601,3.0766,79,test,SHOE,green,right,fillers,NA,,word,800,"left up right",2,,,,,800,48,16.67,148136,right,1022,1,
425529_260415_073521.csv,Safari,17.6,1470,956,MacOS,en-AU,2026-04-15_07:32:16,2026-04-15_17:02:16,2026-04-14_21:49:27,https://www.testable.org/experiment/20535/425529/start,184.601,184601,3.0766,69,test,RED,blue,up,critical,incongruent,,word,800,"left up right",2,,,,,799,48,16.65,149383,up,452,1,
425529_260415_073521.csv,Safari,17.6,1470,956,MacOS,en-AU,2026-04-15_07:32:16,2026-04-15_17:02:16,2026-04-14_21:49:27,https://www.testable.org/experiment/20535/425529/start,184.601,184601,3.0766,59,test,RED,red,left,critical,congruent,,word,800,"left up right",2,,,,,800,48,16.67,150580,left,399,1,
425529_260415_073521.csv,Safari,17.6,1470,956,MacOS,en-AU,2026-04-15_07:32:16,2026-04-15_17:02:16,2026-04-14_21:49:27,https://www.testable.org/experiment/20535/425529/start,184.601,184601,3.0766,53,test,CAR,green,right,fillers,NA,,word,800,"left up right",2,,,,,800,48,16.67,151779,right,398,1,
425529_260415_073521.csv,Safari,17.6,1470,956,MacOS,en-AU,2026-04-15_07:32:16,2026-04-15_17:02:16,2026-04-14_21:49:27,https://www.testable.org/experiment/20535/425529/start,184.601,184601,3.0766,46,test,RED,red,left,critical,congruent,,word,800,"left up right",2,,,,,800,48,16.67,153126,left,560,1,
425529_260415_073521.csv,Safari,17.6,1470,956,MacOS,en-AU,2026-04-15_07:32:16,2026-04-15_17:02:16,2026-04-14_21:49:27,https://www.testable.org/experiment/20535/425529/start,184.601,184601,3.0766,77,test,CAR,blue,up,fillers,NA,,word,800,"left up right",2,,,,,800,48,16.67,154303,up,388,1,
425529_260415_073521.csv,Safari,17.6,1470,956,MacOS,en-AU,2026-04-15_07:32:16,2026-04-15_17:02:16,2026-04-14_21:49:27,https://www.testable.org/experiment/20535/425529/start,184.601,184601,3.0766,55,test,SHOE,red,left,fillers,NA,,word,800,"left up right",2,,,,,800,48,16.67,155510,left,412,1,
425529_260415_073521.csv,Safari,17.6,1470,956,MacOS,en-AU,2026-04-15_07:32:16,2026-04-15_17:02:16,2026-04-14_21:49:27,https://www.testable.org/experiment/20535/425529/start,184.601,184601,3.0766,63,test,BLUE,blue,up,critical,congruent,,word,800,"left up right",2,,,,,800,48,16.67,156658,up,360,1,
425529_260415_073521.csv,Safari,17.6,1470,956,MacOS,en-AU,2026-04-15_07:32:16,2026-04-15_17:02:16,2026-04-14_21:49:27,https://www.testable.org/experiment/20535/425529/start,184.601,184601,3.0766,47,test,RED,green,right,critical,incongruent,,word,800,"left up right",2,,,,,800,48,16.67,157898,right,450,1,
425529_260415_073521.csv,Safari,17.6,1470,956,MacOS,en-AU,2026-04-15_07:32:16,2026-04-15_17:02:16,2026-04-14_21:49:27,https://www.testable.org/experiment/20535/425529/start,184.601,184601,3.0766,62,test,BLUE,blue,up,critical,congruent,,word,800,"left up right",2,,,,,799,48,16.65,159149,up,451,1,
425529_260415_073521.csv,Safari,17.6,1470,956,MacOS,en-AU,2026-04-15_07:32:16,2026-04-15_17:02:16,2026-04-14_21:49:27,https://www.testable.org/experiment/20535/425529/start,184.601,184601,3.0766,81,test,HOUSE,red,left,fillers,NA,,word,800,"left up right",2,,,,,800,48,16.67,160437,left,490,1,
425529_260415_073521.csv,Safari,17.6,1470,956,MacOS,en-AU,2026-04-15_07:32:16,2026-04-15_17:02:16,2026-04-14_21:49:27,https://www.testable.org/experiment/20535/425529/start,184.601,184601,3.0766,49,test,BLUE,red,left,critical,incongruent,,word,800,"left up right",2,,,,,800,48,16.67,161696,left,464,1,
425529_260415_073521.csv,Safari,17.6,1470,956,MacOS,en-AU,2026-04-15_07:32:16,2026-04-15_17:02:16,2026-04-14_21:49:27,https://www.testable.org/experiment/20535/425529/start,184.601,184601,3.0766,48,test,BLUE,blue,up,critical,congruent,,word,800,"left up right",2,,,,,800,48,16.67,163065,up,567,1,
425529_260415_073521.csv,Safari,17.6,1470,956,MacOS,en-AU,2026-04-15_07:32:16,2026-04-15_17:02:16,2026-04-14_21:49:27,https://www.testable.org/experiment/20535/425529/start,184.601,184601,3.0766,68,test,RED,green,right,critical,incongruent,,word,800,"left up right",2,,,,,800,48,16.67,164616,left,751,0,
425529_260415_073521.csv,Safari,17.6,1470,956,MacOS,en-AU,2026-04-15_07:32:16,2026-04-15_17:02:16,2026-04-14_21:49:27,https://www.testable.org/experiment/20535/425529/start,184.601,184601,3.0766,73,test,GREEN,red,left,critical,incongruent,,word,800,"left up right",2,,,,,800,48,16.67,167232,left,1817,1,
425529_260415_073521.csv,Safari,17.6,1470,956,MacOS,en-AU,2026-04-15_07:32:16,2026-04-15_17:02:16,2026-04-14_21:49:27,https://www.testable.org/experiment/20535/425529/start,184.601,184601,3.0766,75,test,GREEN,red,left,critical,incongruent,,word,800,"left up right",2,,,,,799,48,16.65,168990,right,960,0,
425529_260415_073521.csv,Safari,17.6,1470,956,MacOS,en-AU,2026-04-15_07:32:16,2026-04-15_17:02:16,2026-04-14_21:49:27,https://www.testable.org/experiment/20535/425529/start,184.601,184601,3.0766,67,test,GREEN,green,right,critical,congruent,,word,800,"left up right",2,,,,,800,48,16.67,171010,right,1229,1,
425529_260415_073521.csv,Safari,17.6,1470,956,MacOS,en-AU,2026-04-15_07:32:16,2026-04-15_17:02:16,2026-04-14_21:49:27,https://www.testable.org/experiment/20535/425529/start,184.601,184601,3.0766,71,test,BLUE,red,left,critical,incongruent,,word,800,"left up right",2,,,,,800,48,16.67,172929,left,1130,1,
425529_260415_073521.csv,Safari,17.6,1470,956,MacOS,en-AU,2026-04-15_07:32:16,2026-04-15_17:02:16,2026-04-14_21:49:27,https://www.testable.org/experiment/20535/425529/start,184.601,184601,3.0766,82,form,,,,,,,,,,,"Are you a native speaker of English?",radio,Yes;No,"It’s a bit complicated (Let me explain!)",800,,,184601,Yes,11145,0,1
425529_260415_073521.csv,Safari,17.6,1470,956,MacOS,en-AU,2026-04-15_07:32:16,2026-04-15_17:02:16,2026-04-14_21:49:27,https://www.testable.org/experiment/20535/425529/start,184.601,184601,3.0766,83,form,,,,,,,,,,,"How would you rate your proficiency in English?",radio,"Beginner; Intermediate; Advanced; Native / near-native",,800,,,184601,"Native / near-native",11145,0,4
425529_260415_074811.csv,Chrome,146.0.0.0,1470,956,MacOS,en-US,2026-04-15_07:45:20,2026-04-15_08:45:20,2026-04-14_21:49:27,https://www.testable.org/experiment/20535/425529/start,171.572,171572,2.8595,3,test,CAR,green,right,practice,NA,"correct: That's correct! You responded in %RT% milliseconds:\nincorrect: Incorrect... You responded in %RT% milliseconds",word,800,"left up right",,,,,,800,48,16.67,19366,right,871,1,
425529_260415_074811.csv,Chrome,146.0.0.0,1470,956,MacOS,en-US,2026-04-15_07:45:20,2026-04-15_08:45:20,2026-04-14_21:49:27,https://www.testable.org/experiment/20535/425529/start,171.572,171572,2.8595,4,test,SHOE,blue,up,practice,NA,"correct: That's correct! You responded in %RT% milliseconds:\nincorrect: Incorrect... You responded in %RT% milliseconds",word,800,"left up right",,,,,,800,48,16.67,22276,up,1148,1,
425529_260415_074811.csv,Chrome,146.0.0.0,1470,956,MacOS,en-US,2026-04-15_07:45:20,2026-04-15_08:45:20,2026-04-14_21:49:27,https://www.testable.org/experiment/20535/425529/start,171.572,171572,2.8595,5,test,RED,red,left,practice,congruent,"correct: That's correct! You responded in %RT% milliseconds:\nincorrect: Incorrect... You responded in %RT% milliseconds",word,800,"left up right",,,,,,800,48,16.67,24492,left,465,1,
425529_260415_074811.csv,Chrome,146.0.0.0,1470,956,MacOS,en-US,2026-04-15_07:45:20,2026-04-15_08:45:20,2026-04-14_21:49:27,https://www.testable.org/experiment/20535/425529/start,171.572,171572,2.8595,6,test,HOUSE,blue,up,practice,NA,"correct: That's correct! You responded in %RT% milliseconds:\nincorrect: Incorrect... You responded in %RT% milliseconds",word,800,"left up right",,,,,,800,48,16.67,26855,up,711,1,
425529_260415_074811.csv,Chrome,146.0.0.0,1470,956,MacOS,en-US,2026-04-15_07:45:20,2026-04-15_08:45:20,2026-04-14_21:49:27,https://www.testable.org/experiment/20535/425529/start,171.572,171572,2.8595,7,test,BLUE,green,right,practice,incongruent,"correct: That's correct! You responded in %RT% milliseconds:\nincorrect: Incorrect... The word was ""BLUE"" but it was in GREEN. You responded in %RT% milliseconds",word,800,"left up right",,,,,,800,48,16.66,29042,right,631,1,
425529_260415_074811.csv,Chrome,146.0.0.0,1470,956,MacOS,en-US,2026-04-15_07:45:20,2026-04-15_08:45:20,2026-04-14_21:49:27,https://www.testable.org/experiment/20535/425529/start,171.572,171572,2.8595,8,test,GREEN,red,left,practice,incongruent,"correct: That's correct! You responded in %RT% milliseconds:\nincorrect: Incorrect... The word was GREEN but it was in RED. You responded in %RT% milliseconds",word,800,"left up right",,,,,,800,48,16.66,31149,left,588,1,
425529_260415_074811.csv,Chrome,146.0.0.0,1470,956,MacOS,en-US,2026-04-15_07:45:20,2026-04-15_08:45:20,2026-04-14_21:49:27,https://www.testable.org/experiment/20535/425529/start,171.572,171572,2.8595,26,test,GREEN,green,right,critical,congruent,,word,800,"left up right",1,,,,,800,48,16.67,39404,right,794,1,
425529_260415_074811.csv,Chrome,146.0.0.0,1470,956,MacOS,en-US,2026-04-15_07:45:20,2026-04-15_08:45:20,2026-04-14_21:49:27,https://www.testable.org/experiment/20535/425529/start,171.572,171572,2.8595,27,test,GREEN,green,right,critical,congruent,,word,800,"left up right",1,,,,,800,48,16.67,40721,right,527,1,
425529_260415_074811.csv,Chrome,146.0.0.0,1470,956,MacOS,en-US,2026-04-15_07:45:20,2026-04-15_08:45:20,2026-04-14_21:49:27,https://www.testable.org/experiment/20535/425529/start,171.572,171572,2.8595,44,test,HOUSE,red,left,fillers,NA,,word,800,"left up right",1,,,,,800,48,16.67,42102,up,591,0,
425529_260415_074811.csv,Chrome,146.0.0.0,1470,956,MacOS,en-US,2026-04-15_07:45:20,2026-04-15_08:45:20,2026-04-14_21:49:27,https://www.testable.org/experiment/20535/425529/start,171.572,171572,2.8595,28,test,GREEN,green,right,critical,congruent,,word,800,"left up right",1,,,,,800,48,16.67,43444,right,550,1,
425529_260415_074811.csv,Chrome,146.0.0.0,1470,956,MacOS,en-US,2026-04-15_07:45:20,2026-04-15_08:45:20,2026-04-14_21:49:27,https://www.testable.org/experiment/20535/425529/start,171.572,171572,2.8595,32,test,GREEN,red,left,critical,incongruent,,word,800,"left up right",1,,,,,800,48,16.66,45080,right,836,0,
425529_260415_074811.csv,Chrome,146.0.0.0,1470,956,MacOS,en-US,2026-04-15_07:45:20,2026-04-15_08:45:20,2026-04-14_21:49:27,https://www.testable.org/experiment/20535/425529/start,171.572,171572,2.8595,18,test,BLUE,blue,up,critical,congruent,,word,800,"left up right",1,,,,,800,48,16.67,46581,up,704,1,
425529_260415_074811.csv,Chrome,146.0.0.0,1470,956,MacOS,en-US,2026-04-15_07:45:20,2026-04-15_08:45:20,2026-04-14_21:49:27,https://www.testable.org/experiment/20535/425529/start,171.572,171572,2.8595,11,test,RED,red,left,critical,congruent,,word,800,"left up right",1,,,,,800,48,16.67,48302,left,925,1,
425529_260415_074811.csv,Chrome,146.0.0.0,1470,956,MacOS,en-US,2026-04-15_07:45:20,2026-04-15_08:45:20,2026-04-14_21:49:27,https://www.testable.org/experiment/20535/425529/start,171.572,171572,2.8595,24,test,BLUE,red,left,critical,incongruent,,word,800,"left up right",1,,,,,800,48,16.67,49821,left,727,1,
425529_260415_074811.csv,Chrome,146.0.0.0,1470,956,MacOS,en-US,2026-04-15_07:45:20,2026-04-15_08:45:20,2026-04-14_21:49:27,https://www.testable.org/experiment/20535/425529/start,171.572,171572,2.8595,37,test,CAR,red,left,fillers,NA,,word,800,"left up right",1,,,,,800,48,16.67,51266,left,656,1,
425529_260415_074811.csv,Chrome,146.0.0.0,1470,956,MacOS,en-US,2026-04-15_07:45:20,2026-04-15_08:45:20,2026-04-14_21:49:27,https://www.testable.org/experiment/20535/425529/start,171.572,171572,2.8595,33,test,GREEN,blue,up,critical,incongruent,,word,800,"left up right",1,,,,,800,48,16.67,52790,up,730,1,
425529_260415_074811.csv,Chrome,146.0.0.0,1470,956,MacOS,en-US,2026-04-15_07:45:20,2026-04-15_08:45:20,2026-04-14_21:49:27,https://www.testable.org/experiment/20535/425529/start,171.572,171572,2.8595,16,test,RED,green,right,critical,incongruent,,word,800,"left up right",1,,,,,800,48,16.66,54214,right,638,1,
425529_260415_074811.csv,Chrome,146.0.0.0,1470,956,MacOS,en-US,2026-04-15_07:45:20,2026-04-15_08:45:20,2026-04-14_21:49:27,https://www.testable.org/experiment/20535/425529/start,171.572,171572,2.8595,29,test,GREEN,green,right,critical,congruent,,word,800,"left up right",1,,,,,800,48,16.67,55600,right,589,1,
425529_260415_074811.csv,Chrome,146.0.0.0,1470,956,MacOS,en-US,2026-04-15_07:45:20,2026-04-15_08:45:20,2026-04-14_21:49:27,https://www.testable.org/experiment/20535/425529/start,171.572,171572,2.8595,30,test,GREEN,red,left,critical,incongruent,,word,800,"left up right",1,,,,,800,48,16.67,57056,left,663,1,
425529_260415_074811.csv,Chrome,146.0.0.0,1470,956,MacOS,en-US,2026-04-15_07:45:20,2026-04-15_08:45:20,2026-04-14_21:49:27,https://www.testable.org/experiment/20535/425529/start,171.572,171572,2.8595,20,test,BLUE,blue,up,critical,congruent,,word,800,"left up right",1,,,,,800,48,16.67,58357,up,514,1,
425529_260415_074811.csv,Chrome,146.0.0.0,1470,956,MacOS,en-US,2026-04-15_07:45:20,2026-04-15_08:45:20,2026-04-14_21:49:27,https://www.testable.org/experiment/20535/425529/start,171.572,171572,2.8595,36,test,CAR,blue,up,fillers,NA,,word,800,"left up right",1,,,,,800,48,16.67,59760,left,616,0,
425529_260415_074811.csv,Chrome,146.0.0.0,1470,956,MacOS,en-US,2026-04-15_07:45:20,2026-04-15_08:45:20,2026-04-14_21:49:27,https://www.testable.org/experiment/20535/425529/start,171.572,171572,2.8595,14,test,RED,green,right,critical,incongruent,,word,800,"left up right",1,,,,,800,48,16.67,61343,right,783,1,
425529_260415_074811.csv,Chrome,146.0.0.0,1470,956,MacOS,en-US,2026-04-15_07:45:20,2026-04-15_08:45:20,2026-04-14_21:49:27,https://www.testable.org/experiment/20535/425529/start,171.572,171572,2.8595,15,test,RED,blue,up,critical,incongruent,,word,800,"left up right",1,,,,,800,48,16.67,62848,up,705,1,
425529_260415_074811.csv,Chrome,146.0.0.0,1470,956,MacOS,en-US,2026-04-15_07:45:20,2026-04-15_08:45:20,2026-04-14_21:49:27,https://www.testable.org/experiment/20535/425529/start,171.572,171572,2.8595,12,test,RED,red,left,critical,congruent,,word,800,"left up right",1,,,,,799,48,16.65,65094,left,1450,1,
425529_260415_074811.csv,Chrome,146.0.0.0,1470,956,MacOS,en-US,2026-04-15_07:45:20,2026-04-15_08:45:20,2026-04-14_21:49:27,https://www.testable.org/experiment/20535/425529/start,171.572,171572,2.8595,23,test,BLUE,green,right,critical,incongruent,,word,800,"left up right",1,,,,,800,48,16.67,68173,right,2280,1,
425529_260415_074811.csv,Chrome,146.0.0.0,1470,956,MacOS,en-US,2026-04-15_07:45:20,2026-04-15_08:45:20,2026-04-14_21:49:27,https://www.testable.org/experiment/20535/425529/start,171.572,171572,2.8595,21,test,BLUE,blue,up,critical,congruent,,word,800,"left up right",1,,,,,801,48,16.69,69707,up,747,1,
425529_260415_074811.csv,Chrome,146.0.0.0,1470,956,MacOS,en-US,2026-04-15_07:45:20,2026-04-15_08:45:20,2026-04-14_21:49:27,https://www.testable.org/experiment/20535/425529/start,171.572,171572,2.8595,38,test,SHOE,blue,up,fillers,NA,,word,800,"left up right",1,,,,,800,48,16.67,71024,up,531,1,
425529_260415_074811.csv,Chrome,146.0.0.0,1470,956,MacOS,en-US,2026-04-15_07:45:20,2026-04-15_08:45:20,2026-04-14_21:49:27,https://www.testable.org/experiment/20535/425529/start,171.572,171572,2.8595,35,test,CAR,green,right,fillers,NA,,word,800,"left up right",1,,,,,800,48,16.66,73329,right,1503,1,
425529_260415_074811.csv,Chrome,146.0.0.0,1470,956,MacOS,en-US,2026-04-15_07:45:20,2026-04-15_08:45:20,2026-04-14_21:49:27,https://www.testable.org/experiment/20535/425529/start,171.572,171572,2.8595,43,test,HOUSE,blue,up,fillers,NA,,word,800,"left up right",1,,,,,800,48,16.67,74790,up,663,1,
425529_260415_074811.csv,Chrome,146.0.0.0,1470,956,MacOS,en-US,2026-04-15_07:45:20,2026-04-15_08:45:20,2026-04-14_21:49:27,https://www.testable.org/experiment/20535/425529/start,171.572,171572,2.8595,31,test,GREEN,blue,up,critical,incongruent,,word,800,"left up right",1,,,,,800,48,16.67,76055,up,479,1,
425529_260415_074811.csv,Chrome,146.0.0.0,1470,956,MacOS,en-US,2026-04-15_07:45:20,2026-04-15_08:45:20,2026-04-14_21:49:27,https://www.testable.org/experiment/20535/425529/start,171.572,171572,2.8595,42,test,HOUSE,green,right,fillers,NA,,word,800,"left up right",1,,,,,800,48,16.67,77418,right,577,1,
425529_260415_074811.csv,Chrome,146.0.0.0,1470,956,MacOS,en-US,2026-04-15_07:45:20,2026-04-15_08:45:20,2026-04-14_21:49:27,https://www.testable.org/experiment/20535/425529/start,171.572,171572,2.8595,10,test,RED,red,left,critical,congruent,,word,800,"left up right",1,,,,,800,48,16.67,78735,left,525,1,
425529_260415_074811.csv,Chrome,146.0.0.0,1470,956,MacOS,en-US,2026-04-15_07:45:20,2026-04-15_08:45:20,2026-04-14_21:49:27,https://www.testable.org/experiment/20535/425529/start,171.572,171572,2.8595,34,test,CAR,red,left,fillers,NA,,word,800,"left up right",1,,,,,800,48,16.66,79942,left,415,1,
425529_260415_074811.csv,Chrome,146.0.0.0,1470,956,MacOS,en-US,2026-04-15_07:45:20,2026-04-15_08:45:20,2026-04-14_21:49:27,https://www.testable.org/experiment/20535/425529/start,171.572,171572,2.8595,40,test,SHOE,green,right,fillers,NA,,word,800,"left up right",1,,,,,800,48,16.67,81654,right,910,1,
425529_260415_074811.csv,Chrome,146.0.0.0,1470,956,MacOS,en-US,2026-04-15_07:45:20,2026-04-15_08:45:20,2026-04-14_21:49:27,https://www.testable.org/experiment/20535/425529/start,171.572,171572,2.8595,41,test,SHOE,blue,up,fillers,NA,,word,800,"left up right",1,,,,,800,48,16.67,83182,up,739,1,
425529_260415_074811.csv,Chrome,146.0.0.0,1470,956,MacOS,en-US,2026-04-15_07:45:20,2026-04-15_08:45:20,2026-04-14_21:49:27,https://www.testable.org/experiment/20535/425529/start,171.572,171572,2.8595,17,test,RED,blue,up,critical,incongruent,,word,800,"left up right",1,,,,,800,48,16.67,84943,up,966,1,
425529_260415_074811.csv,Chrome,146.0.0.0,1470,956,MacOS,en-US,2026-04-15_07:45:20,2026-04-15_08:45:20,2026-04-14_21:49:27,https://www.testable.org/experiment/20535/425529/start,171.572,171572,2.8595,39,test,SHOE,red,left,fillers,NA,,word,800,"left up right",1,,,,,800,48,16.67,86499,left,756,1,
425529_260415_074811.csv,Chrome,146.0.0.0,1470,956,MacOS,en-US,2026-04-15_07:45:20,2026-04-15_08:45:20,2026-04-14_21:49:27,https://www.testable.org/experiment/20535/425529/start,171.572,171572,2.8595,19,test,BLUE,blue,up,critical,congruent,,word,800,"left up right",1,,,,,800,48,16.67,88058,up,765,1,
425529_260415_074811.csv,Chrome,146.0.0.0,1470,956,MacOS,en-US,2026-04-15_07:45:20,2026-04-15_08:45:20,2026-04-14_21:49:27,https://www.testable.org/experiment/20535/425529/start,171.572,171572,2.8595,22,test,BLUE,red,left,critical,incongruent,,word,800,"left up right",1,,,,,800,48,16.67,89430,left,571,1,
425529_260415_074811.csv,Chrome,146.0.0.0,1470,956,MacOS,en-US,2026-04-15_07:45:20,2026-04-15_08:45:20,2026-04-14_21:49:27,https://www.testable.org/experiment/20535/425529/start,171.572,171572,2.8595,13,test,RED,red,left,critical,congruent,,word,800,"left up right",1,,,,,800,48,16.67,91011,left,784,1,
425529_260415_074811.csv,Chrome,146.0.0.0,1470,956,MacOS,en-US,2026-04-15_07:45:20,2026-04-15_08:45:20,2026-04-14_21:49:27,https://www.testable.org/experiment/20535/425529/start,171.572,171572,2.8595,45,test,HOUSE,green,right,fillers,NA,,word,800,"left up right",1,,,,,800,48,16.67,93878,right,2069,1,
425529_260415_074811.csv,Chrome,146.0.0.0,1470,956,MacOS,en-US,2026-04-15_07:45:20,2026-04-15_08:45:20,2026-04-14_21:49:27,https://www.testable.org/experiment/20535/425529/start,171.572,171572,2.8595,25,test,BLUE,green,right,critical,incongruent,,word,800,"left up right",1,,,,,800,48,16.67,95413,right,736,1,
425529_260415_074811.csv,Chrome,146.0.0.0,1470,956,MacOS,en-US,2026-04-15_07:45:20,2026-04-15_08:45:20,2026-04-14_21:49:27,https://www.testable.org/experiment/20535/425529/start,171.572,171572,2.8595,56,test,HOUSE,green,right,fillers,NA,,word,800,"left up right",2,,,,,800,48,16.67,96700,right,490,1,
425529_260415_074811.csv,Chrome,146.0.0.0,1470,956,MacOS,en-US,2026-04-15_07:45:20,2026-04-15_08:45:20,2026-04-14_21:49:27,https://www.testable.org/experiment/20535/425529/start,171.572,171572,2.8595,77,test,CAR,blue,up,fillers,NA,,word,800,"left up right",2,,,,,800,48,16.67,98247,up,754,1,
425529_260415_074811.csv,Chrome,146.0.0.0,1470,956,MacOS,en-US,2026-04-15_07:45:20,2026-04-15_08:45:20,2026-04-14_21:49:27,https://www.testable.org/experiment/20535/425529/start,171.572,171572,2.8595,71,test,BLUE,red,left,critical,incongruent,,word,800,"left up right",2,,,,,800,48,16.67,99854,left,811,1,
425529_260415_074811.csv,Chrome,146.0.0.0,1470,956,MacOS,en-US,2026-04-15_07:45:20,2026-04-15_08:45:20,2026-04-14_21:49:27,https://www.testable.org/experiment/20535/425529/start,171.572,171572,2.8595,59,test,RED,red,left,critical,congruent,,word,800,"left up right",2,,,,,800,48,16.67,101146,left,503,1,
425529_260415_074811.csv,Chrome,146.0.0.0,1470,956,MacOS,en-US,2026-04-15_07:45:20,2026-04-15_08:45:20,2026-04-14_21:49:27,https://www.testable.org/experiment/20535/425529/start,171.572,171572,2.8595,55,test,SHOE,red,left,fillers,NA,,word,800,"left up right",2,,,,,800,48,16.66,102456,left,514,1,
425529_260415_074811.csv,Chrome,146.0.0.0,1470,956,MacOS,en-US,2026-04-15_07:45:20,2026-04-15_08:45:20,2026-04-14_21:49:27,https://www.testable.org/experiment/20535/425529/start,171.572,171572,2.8595,70,test,BLUE,green,right,critical,incongruent,,word,800,"left up right",2,,,,,800,48,16.67,103934,right,691,1,
425529_260415_074811.csv,Chrome,146.0.0.0,1470,956,MacOS,en-US,2026-04-15_07:45:20,2026-04-15_08:45:20,2026-04-14_21:49:27,https://www.testable.org/experiment/20535/425529/start,171.572,171572,2.8595,48,test,BLUE,blue,up,critical,congruent,,word,800,"left up right",2,,,,,800,48,16.67,105571,up,846,1,
425529_260415_074811.csv,Chrome,146.0.0.0,1470,956,MacOS,en-US,2026-04-15_07:45:20,2026-04-15_08:45:20,2026-04-14_21:49:27,https://www.testable.org/experiment/20535/425529/start,171.572,171572,2.8595,46,test,RED,red,left,critical,congruent,,word,800,"left up right",2,,,,,800,48,16.67,106887,left,527,1,
425529_260415_074811.csv,Chrome,146.0.0.0,1470,956,MacOS,en-US,2026-04-15_07:45:20,2026-04-15_08:45:20,2026-04-14_21:49:27,https://www.testable.org/experiment/20535/425529/start,171.572,171572,2.8595,50,test,GREEN,green,right,critical,congruent,,word,800,"left up right",2,,,,,800,48,16.67,109648,right,1972,1,
425529_260415_074811.csv,Chrome,146.0.0.0,1470,956,MacOS,en-US,2026-04-15_07:45:20,2026-04-15_08:45:20,2026-04-14_21:49:27,https://www.testable.org/experiment/20535/425529/start,171.572,171572,2.8595,66,test,GREEN,green,right,critical,congruent,,word,800,"left up right",2,,,,,800,48,16.67,111049,right,606,1,
425529_260415_074811.csv,Chrome,146.0.0.0,1470,956,MacOS,en-US,2026-04-15_07:45:20,2026-04-15_08:45:20,2026-04-14_21:49:27,https://www.testable.org/experiment/20535/425529/start,171.572,171572,2.8595,69,test,RED,blue,up,critical,incongruent,,word,800,"left up right",2,,,,,800,48,16.67,112738,up,895,1,
425529_260415_074811.csv,Chrome,146.0.0.0,1470,956,MacOS,en-US,2026-04-15_07:45:20,2026-04-15_08:45:20,2026-04-14_21:49:27,https://www.testable.org/experiment/20535/425529/start,171.572,171572,2.8595,49,test,BLUE,red,left,critical,incongruent,,word,800,"left up right",2,,,,,800,48,16.67,114038,left,511,1,
425529_260415_074811.csv,Chrome,146.0.0.0,1470,956,MacOS,en-US,2026-04-15_07:45:20,2026-04-15_08:45:20,2026-04-14_21:49:27,https://www.testable.org/experiment/20535/425529/start,171.572,171572,2.8595,80,test,HOUSE,green,right,fillers,NA,,word,800,"left up right",2,,,,,800,48,16.67,115538,right,711,1,
425529_260415_074811.csv,Chrome,146.0.0.0,1470,956,MacOS,en-US,2026-04-15_07:45:20,2026-04-15_08:45:20,2026-04-14_21:49:27,https://www.testable.org/experiment/20535/425529/start,171.572,171572,2.8595,75,test,GREEN,red,left,critical,incongruent,,word,800,"left up right",2,,,,,800,48,16.67,117105,up,779,0,
425529_260415_074811.csv,Chrome,146.0.0.0,1470,956,MacOS,en-US,2026-04-15_07:45:20,2026-04-15_08:45:20,2026-04-14_21:49:27,https://www.testable.org/experiment/20535/425529/start,171.572,171572,2.8595,60,test,RED,red,left,critical,congruent,,word,800,"left up right",2,,,,,801,48,16.68,118464,left,571,1,
425529_260415_074811.csv,Chrome,146.0.0.0,1470,956,MacOS,en-US,2026-04-15_07:45:20,2026-04-15_08:45:20,2026-04-14_21:49:27,https://www.testable.org/experiment/20535/425529/start,171.572,171572,2.8595,72,test,BLUE,green,right,critical,incongruent,,word,800,"left up right",2,,,,,800,48,16.67,119937,right,677,1,
425529_260415_074811.csv,Chrome,146.0.0.0,1470,956,MacOS,en-US,2026-04-15_07:45:20,2026-04-15_08:45:20,2026-04-14_21:49:27,https://www.testable.org/experiment/20535/425529/start,171.572,171572,2.8595,65,test,GREEN,green,right,critical,congruent,,word,800,"left up right",2,,,,,800,48,16.66,122725,right,1999,1,
425529_260415_074811.csv,Chrome,146.0.0.0,1470,956,MacOS,en-US,2026-04-15_07:45:20,2026-04-15_08:45:20,2026-04-14_21:49:27,https://www.testable.org/experiment/20535/425529/start,171.572,171572,2.8595,62,test,BLUE,blue,up,critical,congruent,,word,800,"left up right",2,,,,,800,48,16.66,124646,up,1120,1,
425529_260415_074811.csv,Chrome,146.0.0.0,1470,956,MacOS,en-US,2026-04-15_07:45:20,2026-04-15_08:45:20,2026-04-14_21:49:27,https://www.testable.org/experiment/20535/425529/start,171.572,171572,2.8595,57,test,HOUSE,blue,up,fillers,NA,,word,800,"left up right",2,,,,,800,48,16.67,126095,up,652,1,
425529_260415_074811.csv,Chrome,146.0.0.0,1470,956,MacOS,en-US,2026-04-15_07:45:20,2026-04-15_08:45:20,2026-04-14_21:49:27,https://www.testable.org/experiment/20535/425529/start,171.572,171572,2.8595,68,test,RED,green,right,critical,incongruent,,word,800,"left up right",2,,,,,800,48,16.67,127954,right,1061,1,
425529_260415_074811.csv,Chrome,146.0.0.0,1470,956,MacOS,en-US,2026-04-15_07:45:20,2026-04-15_08:45:20,2026-04-14_21:49:27,https://www.testable.org/experiment/20535/425529/start,171.572,171572,2.8595,47,test,RED,green,right,critical,incongruent,,word,800,"left up right",2,,,,,800,48,16.67,129654,right,911,1,
425529_260415_074811.csv,Chrome,146.0.0.0,1470,956,MacOS,en-US,2026-04-15_07:45:20,2026-04-15_08:45:20,2026-04-14_21:49:27,https://www.testable.org/experiment/20535/425529/start,171.572,171572,2.8595,79,test,SHOE,green,right,fillers,NA,,word,800,"left up right",2,,,,,800,48,16.67,131144,right,701,1,
425529_260415_074811.csv,Chrome,146.0.0.0,1470,956,MacOS,en-US,2026-04-15_07:45:20,2026-04-15_08:45:20,2026-04-14_21:49:27,https://www.testable.org/experiment/20535/425529/start,171.572,171572,2.8595,52,test,CAR,red,left,fillers,NA,,word,800,"left up right",2,,,,,800,48,16.67,132647,left,705,1,
425529_260415_074811.csv,Chrome,146.0.0.0,1470,956,MacOS,en-US,2026-04-15_07:45:20,2026-04-15_08:45:20,2026-04-14_21:49:27,https://www.testable.org/experiment/20535/425529/start,171.572,171572,2.8595,67,test,GREEN,green,right,critical,congruent,,word,800,"left up right",2,,,,,800,48,16.67,134115,right,673,1,
425529_260415_074811.csv,Chrome,146.0.0.0,1470,956,MacOS,en-US,2026-04-15_07:45:20,2026-04-15_08:45:20,2026-04-14_21:49:27,https://www.testable.org/experiment/20535/425529/start,171.572,171572,2.8595,76,test,CAR,red,left,fillers,NA,,word,800,"left up right",2,,,,,800,48,16.67,135455,left,548,1,
425529_260415_074811.csv,Chrome,146.0.0.0,1470,956,MacOS,en-US,2026-04-15_07:45:20,2026-04-15_08:45:20,2026-04-14_21:49:27,https://www.testable.org/experiment/20535/425529/start,171.572,171572,2.8595,58,test,RED,red,left,critical,congruent,,word,800,"left up right",2,,,,,800,48,16.67,136821,left,578,1,
425529_260415_074811.csv,Chrome,146.0.0.0,1470,956,MacOS,en-US,2026-04-15_07:45:20,2026-04-15_08:45:20,2026-04-14_21:49:27,https://www.testable.org/experiment/20535/425529/start,171.572,171572,2.8595,81,test,HOUSE,red,left,fillers,NA,,word,800,"left up right",2,,,,,800,48,16.67,138037,left,428,1,
425529_260415_074811.csv,Chrome,146.0.0.0,1470,956,MacOS,en-US,2026-04-15_07:45:20,2026-04-15_08:45:20,2026-04-14_21:49:27,https://www.testable.org/experiment/20535/425529/start,171.572,171572,2.8595,61,test,RED,blue,up,critical,incongruent,,word,800,"left up right",2,,,,,800,48,16.67,139323,up,497,1,
425529_260415_074811.csv,Chrome,146.0.0.0,1470,956,MacOS,en-US,2026-04-15_07:45:20,2026-04-15_08:45:20,2026-04-14_21:49:27,https://www.testable.org/experiment/20535/425529/start,171.572,171572,2.8595,63,test,BLUE,blue,up,critical,congruent,,word,800,"left up right",2,,,,,800,48,16.67,140661,up,552,1,
425529_260415_074811.csv,Chrome,146.0.0.0,1470,956,MacOS,en-US,2026-04-15_07:45:20,2026-04-15_08:45:20,2026-04-14_21:49:27,https://www.testable.org/experiment/20535/425529/start,171.572,171572,2.8595,74,test,GREEN,blue,up,critical,incongruent,,word,800,"left up right",2,,,,,800,48,16.66,141911,up,452,1,
425529_260415_074811.csv,Chrome,146.0.0.0,1470,956,MacOS,en-US,2026-04-15_07:45:20,2026-04-15_08:45:20,2026-04-14_21:49:27,https://www.testable.org/experiment/20535/425529/start,171.572,171572,2.8595,64,test,BLUE,blue,up,critical,congruent,,word,800,"left up right",2,,,,,800,48,16.67,143179,up,470,1,
425529_260415_074811.csv,Chrome,146.0.0.0,1470,956,MacOS,en-US,2026-04-15_07:45:20,2026-04-15_08:45:20,2026-04-14_21:49:27,https://www.testable.org/experiment/20535/425529/start,171.572,171572,2.8595,78,test,SHOE,blue,up,fillers,NA,,word,800,"left up right",2,,,,,800,48,16.67,144400,up,423,1,
425529_260415_074811.csv,Chrome,146.0.0.0,1470,956,MacOS,en-US,2026-04-15_07:45:20,2026-04-15_08:45:20,2026-04-14_21:49:27,https://www.testable.org/experiment/20535/425529/start,171.572,171572,2.8595,51,test,GREEN,blue,up,critical,incongruent,,word,800,"left up right",2,,,,,800,48,16.67,145613,up,420,1,
425529_260415_074811.csv,Chrome,146.0.0.0,1470,956,MacOS,en-US,2026-04-15_07:45:20,2026-04-15_08:45:20,2026-04-14_21:49:27,https://www.testable.org/experiment/20535/425529/start,171.572,171572,2.8595,54,test,SHOE,blue,up,fillers,NA,,word,800,"left up right",2,,,,,800,48,16.67,146838,up,428,1,
425529_260415_074811.csv,Chrome,146.0.0.0,1470,956,MacOS,en-US,2026-04-15_07:45:20,2026-04-15_08:45:20,2026-04-14_21:49:27,https://www.testable.org/experiment/20535/425529/start,171.572,171572,2.8595,73,test,GREEN,red,left,critical,incongruent,,word,800,"left up right",2,,,,,799,48,16.65,148305,left,678,1,
425529_260415_074811.csv,Chrome,146.0.0.0,1470,956,MacOS,en-US,2026-04-15_07:45:20,2026-04-15_08:45:20,2026-04-14_21:49:27,https://www.testable.org/experiment/20535/425529/start,171.572,171572,2.8595,53,test,CAR,green,right,fillers,NA,,word,800,"left up right",2,,,,,800,48,16.67,149648,right,555,1,
425529_260415_074811.csv,Chrome,146.0.0.0,1470,956,MacOS,en-US,2026-04-15_07:45:20,2026-04-15_08:45:20,2026-04-14_21:49:27,https://www.testable.org/experiment/20535/425529/start,171.572,171572,2.8595,82,form,,,,,,,,,,,"Are you a native speaker of English?",radio,Yes;No,"It’s a bit complicated (Let me explain!)",800,,,171572,No,21406,0,2
425529_260415_074811.csv,Chrome,146.0.0.0,1470,956,MacOS,en-US,2026-04-15_07:45:20,2026-04-15_08:45:20,2026-04-14_21:49:27,https://www.testable.org/experiment/20535/425529/start,171.572,171572,2.8595,83,form,,,,,,,,,,,"How would you rate your proficiency in English?",radio,"Beginner; Intermediate; Advanced; Native / near-native",,800,,,171572,"Native / near-native",21406,0,4
425529_260415_075527.csv,Chrome,146.0.0.0,1470,956,MacOS,en-AU,2026-04-15_07:52:35,2026-04-15_17:52:35,2026-04-14_21:49:27,https://www.testable.org/experiment/20535/425529/start,172.254,172254,2.8709,3,test,CAR,green,right,practice,NA,"correct: That's correct! You responded in %RT% milliseconds:\nincorrect: Incorrect... You responded in %RT% milliseconds",word,800,"left up right",,,,,,800,48,16.66,34760,right,1045,1,
425529_260415_075527.csv,Chrome,146.0.0.0,1470,956,MacOS,en-AU,2026-04-15_07:52:35,2026-04-15_17:52:35,2026-04-14_21:49:27,https://www.testable.org/experiment/20535/425529/start,172.254,172254,2.8709,4,test,SHOE,blue,up,practice,NA,"correct: That's correct! You responded in %RT% milliseconds:\nincorrect: Incorrect... You responded in %RT% milliseconds",word,800,"left up right",,,,,,800,48,16.67,41887,up,607,1,
425529_260415_075527.csv,Chrome,146.0.0.0,1470,956,MacOS,en-AU,2026-04-15_07:52:35,2026-04-15_17:52:35,2026-04-14_21:49:27,https://www.testable.org/experiment/20535/425529/start,172.254,172254,2.8709,5,test,RED,red,left,practice,congruent,"correct: That's correct! You responded in %RT% milliseconds:\nincorrect: Incorrect... You responded in %RT% milliseconds",word,800,"left up right",,,,,,800,48,16.67,44063,left,351,1,
425529_260415_075527.csv,Chrome,146.0.0.0,1470,956,MacOS,en-AU,2026-04-15_07:52:35,2026-04-15_17:52:35,2026-04-14_21:49:27,https://www.testable.org/experiment/20535/425529/start,172.254,172254,2.8709,6,test,HOUSE,blue,up,practice,NA,"correct: That's correct! You responded in %RT% milliseconds:\nincorrect: Incorrect... You responded in %RT% milliseconds",word,800,"left up right",,,,,,800,48,16.67,48269,up,641,1,
425529_260415_075527.csv,Chrome,146.0.0.0,1470,956,MacOS,en-AU,2026-04-15_07:52:35,2026-04-15_17:52:35,2026-04-14_21:49:27,https://www.testable.org/experiment/20535/425529/start,172.254,172254,2.8709,7,test,BLUE,green,right,practice,incongruent,"correct: That's correct! You responded in %RT% milliseconds:\nincorrect: Incorrect... The word was ""BLUE"" but it was in GREEN. You responded in %RT% milliseconds",word,800,"left up right",,,,,,800,48,16.67,51788,right,576,1,
425529_260415_075527.csv,Chrome,146.0.0.0,1470,956,MacOS,en-AU,2026-04-15_07:52:35,2026-04-15_17:52:35,2026-04-14_21:49:27,https://www.testable.org/experiment/20535/425529/start,172.254,172254,2.8709,8,test,GREEN,red,left,practice,incongruent,"correct: That's correct! You responded in %RT% milliseconds:\nincorrect: Incorrect... The word was GREEN but it was in RED. You responded in %RT% milliseconds",word,800,"left up right",,,,,,800,48,16.67,54892,left,631,1,
425529_260415_075527.csv,Chrome,146.0.0.0,1470,956,MacOS,en-AU,2026-04-15_07:52:35,2026-04-15_17:52:35,2026-04-14_21:49:27,https://www.testable.org/experiment/20535/425529/start,172.254,172254,2.8709,13,test,RED,red,left,critical,congruent,,word,800,"left up right",1,,,,,800,48,16.66,68832,left,437,1,
425529_260415_075527.csv,Chrome,146.0.0.0,1470,956,MacOS,en-AU,2026-04-15_07:52:35,2026-04-15_17:52:35,2026-04-14_21:49:27,https://www.testable.org/experiment/20535/425529/start,172.254,172254,2.8709,20,test,BLUE,blue,up,critical,congruent,,word,800,"left up right",1,,,,,800,48,16.67,70155,up,527,1,
425529_260415_075527.csv,Chrome,146.0.0.0,1470,956,MacOS,en-AU,2026-04-15_07:52:35,2026-04-15_17:52:35,2026-04-14_21:49:27,https://www.testable.org/experiment/20535/425529/start,172.254,172254,2.8709,14,test,RED,green,right,critical,incongruent,,word,800,"left up right",1,,,,,800,48,16.67,71279,right,333,1,
425529_260415_075527.csv,Chrome,146.0.0.0,1470,956,MacOS,en-AU,2026-04-15_07:52:35,2026-04-15_17:52:35,2026-04-14_21:49:27,https://www.testable.org/experiment/20535/425529/start,172.254,172254,2.8709,39,test,SHOE,red,left,fillers,NA,,word,800,"left up right",1,,,,,800,48,16.67,72577,left,499,1,
425529_260415_075527.csv,Chrome,146.0.0.0,1470,956,MacOS,en-AU,2026-04-15_07:52:35,2026-04-15_17:52:35,2026-04-14_21:49:27,https://www.testable.org/experiment/20535/425529/start,172.254,172254,2.8709,23,test,BLUE,green,right,critical,incongruent,,word,800,"left up right",1,,,,,800,48,16.66,74052,up,674,0,
425529_260415_075527.csv,Chrome,146.0.0.0,1470,956,MacOS,en-AU,2026-04-15_07:52:35,2026-04-15_17:52:35,2026-04-14_21:49:27,https://www.testable.org/experiment/20535/425529/start,172.254,172254,2.8709,11,test,RED,red,left,critical,congruent,,word,800,"left up right",1,,,,,800,48,16.67,75438,left,592,1,
425529_260415_075527.csv,Chrome,146.0.0.0,1470,956,MacOS,en-AU,2026-04-15_07:52:35,2026-04-15_17:52:35,2026-04-14_21:49:27,https://www.testable.org/experiment/20535/425529/start,172.254,172254,2.8709,45,test,HOUSE,green,right,fillers,NA,,word,800,"left up right",1,,,,,800,48,16.67,76661,right,433,1,
425529_260415_075527.csv,Chrome,146.0.0.0,1470,956,MacOS,en-AU,2026-04-15_07:52:35,2026-04-15_17:52:35,2026-04-14_21:49:27,https://www.testable.org/experiment/20535/425529/start,172.254,172254,2.8709,35,test,CAR,green,right,fillers,NA,,word,800,"left up right",1,,,,,800,48,16.67,77920,right,459,1,
425529_260415_075527.csv,Chrome,146.0.0.0,1470,956,MacOS,en-AU,2026-04-15_07:52:35,2026-04-15_17:52:35,2026-04-14_21:49:27,https://www.testable.org/experiment/20535/425529/start,172.254,172254,2.8709,25,test,BLUE,green,right,critical,incongruent,,word,800,"left up right",1,,,,,800,48,16.67,79144,right,433,1,
425529_260415_075527.csv,Chrome,146.0.0.0,1470,956,MacOS,en-AU,2026-04-15_07:52:35,2026-04-15_17:52:35,2026-04-14_21:49:27,https://www.testable.org/experiment/20535/425529/start,172.254,172254,2.8709,12,test,RED,red,left,critical,congruent,,word,800,"left up right",1,,,,,800,48,16.67,80532,left,588,1,
425529_260415_075527.csv,Chrome,146.0.0.0,1470,956,MacOS,en-AU,2026-04-15_07:52:35,2026-04-15_17:52:35,2026-04-14_21:49:27,https://www.testable.org/experiment/20535/425529/start,172.254,172254,2.8709,33,test,GREEN,blue,up,critical,incongruent,,word,800,"left up right",1,,,,,800,48,16.67,81971,up,642,1,
425529_260415_075527.csv,Chrome,146.0.0.0,1470,956,MacOS,en-AU,2026-04-15_07:52:35,2026-04-15_17:52:35,2026-04-14_21:49:27,https://www.testable.org/experiment/20535/425529/start,172.254,172254,2.8709,37,test,CAR,red,left,fillers,NA,,word,800,"left up right",1,,,,,800,48,16.67,83363,left,601,1,
425529_260415_075527.csv,Chrome,146.0.0.0,1470,956,MacOS,en-AU,2026-04-15_07:52:35,2026-04-15_17:52:35,2026-04-14_21:49:27,https://www.testable.org/experiment/20535/425529/start,172.254,172254,2.8709,17,test,RED,blue,up,critical,incongruent,,word,800,"left up right",1,,,,,801,48,16.68,84534,up,373,1,
425529_260415_075527.csv,Chrome,146.0.0.0,1470,956,MacOS,en-AU,2026-04-15_07:52:35,2026-04-15_17:52:35,2026-04-14_21:49:27,https://www.testable.org/experiment/20535/425529/start,172.254,172254,2.8709,18,test,BLUE,blue,up,critical,congruent,,word,800,"left up right",1,,,,,800,48,16.67,85866,up,539,1,
425529_260415_075527.csv,Chrome,146.0.0.0,1470,956,MacOS,en-AU,2026-04-15_07:52:35,2026-04-15_17:52:35,2026-04-14_21:49:27,https://www.testable.org/experiment/20535/425529/start,172.254,172254,2.8709,16,test,RED,green,right,critical,incongruent,,word,800,"left up right",1,,,,,799,48,16.65,87154,right,492,1,
425529_260415_075527.csv,Chrome,146.0.0.0,1470,956,MacOS,en-AU,2026-04-15_07:52:35,2026-04-15_17:52:35,2026-04-14_21:49:27,https://www.testable.org/experiment/20535/425529/start,172.254,172254,2.8709,42,test,HOUSE,green,right,fillers,NA,,word,800,"left up right",1,,,,,800,48,16.67,88608,right,663,1,
425529_260415_075527.csv,Chrome,146.0.0.0,1470,956,MacOS,en-AU,2026-04-15_07:52:35,2026-04-15_17:52:35,2026-04-14_21:49:27,https://www.testable.org/experiment/20535/425529/start,172.254,172254,2.8709,36,test,CAR,blue,up,fillers,NA,,word,800,"left up right",1,,,,,800,48,16.67,89928,up,533,1,
425529_260415_075527.csv,Chrome,146.0.0.0,1470,956,MacOS,en-AU,2026-04-15_07:52:35,2026-04-15_17:52:35,2026-04-14_21:49:27,https://www.testable.org/experiment/20535/425529/start,172.254,172254,2.8709,24,test,BLUE,red,left,critical,incongruent,,word,800,"left up right",1,,,,,800,48,16.67,91270,left,543,1,
425529_260415_075527.csv,Chrome,146.0.0.0,1470,956,MacOS,en-AU,2026-04-15_07:52:35,2026-04-15_17:52:35,2026-04-14_21:49:27,https://www.testable.org/experiment/20535/425529/start,172.254,172254,2.8709,40,test,SHOE,green,right,fillers,NA,,word,800,"left up right",1,,,,,800,48,16.67,92697,right,636,1,
425529_260415_075527.csv,Chrome,146.0.0.0,1470,956,MacOS,en-AU,2026-04-15_07:52:35,2026-04-15_17:52:35,2026-04-14_21:49:27,https://www.testable.org/experiment/20535/425529/start,172.254,172254,2.8709,27,test,GREEN,green,right,critical,congruent,,word,800,"left up right",1,,,,,800,48,16.67,94026,right,531,1,
425529_260415_075527.csv,Chrome,146.0.0.0,1470,956,MacOS,en-AU,2026-04-15_07:52:35,2026-04-15_17:52:35,2026-04-14_21:49:27,https://www.testable.org/experiment/20535/425529/start,172.254,172254,2.8709,26,test,GREEN,green,right,critical,congruent,,word,800,"left up right",1,,,,,800,48,16.66,95311,right,483,1,
425529_260415_075527.csv,Chrome,146.0.0.0,1470,956,MacOS,en-AU,2026-04-15_07:52:35,2026-04-15_17:52:35,2026-04-14_21:49:27,https://www.testable.org/experiment/20535/425529/start,172.254,172254,2.8709,43,test,HOUSE,blue,up,fillers,NA,,word,800,"left up right",1,,,,,800,48,16.67,96635,up,524,1,
425529_260415_075527.csv,Chrome,146.0.0.0,1470,956,MacOS,en-AU,2026-04-15_07:52:35,2026-04-15_17:52:35,2026-04-14_21:49:27,https://www.testable.org/experiment/20535/425529/start,172.254,172254,2.8709,28,test,GREEN,green,right,critical,congruent,,word,800,"left up right",1,,,,,800,48,16.67,97977,right,549,1,
425529_260415_075527.csv,Chrome,146.0.0.0,1470,956,MacOS,en-AU,2026-04-15_07:52:35,2026-04-15_17:52:35,2026-04-14_21:49:27,https://www.testable.org/experiment/20535/425529/start,172.254,172254,2.8709,38,test,SHOE,blue,up,fillers,NA,,word,800,"left up right",1,,,,,800,48,16.66,99289,up,509,1,
425529_260415_075527.csv,Chrome,146.0.0.0,1470,956,MacOS,en-AU,2026-04-15_07:52:35,2026-04-15_17:52:35,2026-04-14_21:49:27,https://www.testable.org/experiment/20535/425529/start,172.254,172254,2.8709,31,test,GREEN,blue,up,critical,incongruent,,word,800,"left up right",1,,,,,800,48,16.67,100670,right,593,0,
425529_260415_075527.csv,Chrome,146.0.0.0,1470,956,MacOS,en-AU,2026-04-15_07:52:35,2026-04-15_17:52:35,2026-04-14_21:49:27,https://www.testable.org/experiment/20535/425529/start,172.254,172254,2.8709,15,test,RED,blue,up,critical,incongruent,,word,800,"left up right",1,,,,,800,48,16.67,102364,up,903,1,
425529_260415_075527.csv,Chrome,146.0.0.0,1470,956,MacOS,en-AU,2026-04-15_07:52:35,2026-04-15_17:52:35,2026-04-14_21:49:27,https://www.testable.org/experiment/20535/425529/start,172.254,172254,2.8709,21,test,BLUE,blue,up,critical,congruent,,word,800,"left up right",1,,,,,801,48,16.68,103681,up,519,1,
425529_260415_075527.csv,Chrome,146.0.0.0,1470,956,MacOS,en-AU,2026-04-15_07:52:35,2026-04-15_17:52:35,2026-04-14_21:49:27,https://www.testable.org/experiment/20535/425529/start,172.254,172254,2.8709,10,test,RED,red,left,critical,congruent,,word,800,"left up right",1,,,,,800,48,16.67,104950,left,473,1,
425529_260415_075527.csv,Chrome,146.0.0.0,1470,956,MacOS,en-AU,2026-04-15_07:52:35,2026-04-15_17:52:35,2026-04-14_21:49:27,https://www.testable.org/experiment/20535/425529/start,172.254,172254,2.8709,29,test,GREEN,green,right,critical,congruent,,word,800,"left up right",1,,,,,800,48,16.67,106325,right,581,1,
425529_260415_075527.csv,Chrome,146.0.0.0,1470,956,MacOS,en-AU,2026-04-15_07:52:35,2026-04-15_17:52:35,2026-04-14_21:49:27,https://www.testable.org/experiment/20535/425529/start,172.254,172254,2.8709,30,test,GREEN,red,left,critical,incongruent,,word,800,"left up right",1,,,,,800,48,16.67,107602,left,491,1,
425529_260415_075527.csv,Chrome,146.0.0.0,1470,956,MacOS,en-AU,2026-04-15_07:52:35,2026-04-15_17:52:35,2026-04-14_21:49:27,https://www.testable.org/experiment/20535/425529/start,172.254,172254,2.8709,41,test,SHOE,blue,up,fillers,NA,,word,800,"left up right",1,,,,,800,48,16.67,108848,up,453,1,
425529_260415_075527.csv,Chrome,146.0.0.0,1470,956,MacOS,en-AU,2026-04-15_07:52:35,2026-04-15_17:52:35,2026-04-14_21:49:27,https://www.testable.org/experiment/20535/425529/start,172.254,172254,2.8709,19,test,BLUE,blue,up,critical,congruent,,word,800,"left up right",1,,,,,800,48,16.67,110074,up,429,1,
425529_260415_075527.csv,Chrome,146.0.0.0,1470,956,MacOS,en-AU,2026-04-15_07:52:35,2026-04-15_17:52:35,2026-04-14_21:49:27,https://www.testable.org/experiment/20535/425529/start,172.254,172254,2.8709,22,test,BLUE,red,left,critical,incongruent,,word,800,"left up right",1,,,,,800,48,16.67,111362,left,500,1,
425529_260415_075527.csv,Chrome,146.0.0.0,1470,956,MacOS,en-AU,2026-04-15_07:52:35,2026-04-15_17:52:35,2026-04-14_21:49:27,https://www.testable.org/experiment/20535/425529/start,172.254,172254,2.8709,44,test,HOUSE,red,left,fillers,NA,,word,800,"left up right",1,,,,,800,48,16.67,112582,up,420,0,
425529_260415_075527.csv,Chrome,146.0.0.0,1470,956,MacOS,en-AU,2026-04-15_07:52:35,2026-04-15_17:52:35,2026-04-14_21:49:27,https://www.testable.org/experiment/20535/425529/start,172.254,172254,2.8709,32,test,GREEN,red,left,critical,incongruent,,word,800,"left up right",1,,,,,800,48,16.67,113936,left,558,1,
425529_260415_075527.csv,Chrome,146.0.0.0,1470,956,MacOS,en-AU,2026-04-15_07:52:35,2026-04-15_17:52:35,2026-04-14_21:49:27,https://www.testable.org/experiment/20535/425529/start,172.254,172254,2.8709,34,test,CAR,red,left,fillers,NA,,word,800,"left up right",1,,,,,800,48,16.67,115335,left,606,1,
425529_260415_075527.csv,Chrome,146.0.0.0,1470,956,MacOS,en-AU,2026-04-15_07:52:35,2026-04-15_17:52:35,2026-04-14_21:49:27,https://www.testable.org/experiment/20535/425529/start,172.254,172254,2.8709,47,test,RED,green,right,critical,incongruent,,word,800,"left up right",2,,,,,800,48,16.67,117306,right,1178,1,
425529_260415_075527.csv,Chrome,146.0.0.0,1470,956,MacOS,en-AU,2026-04-15_07:52:35,2026-04-15_17:52:35,2026-04-14_21:49:27,https://www.testable.org/experiment/20535/425529/start,172.254,172254,2.8709,62,test,BLUE,blue,up,critical,congruent,,word,800,"left up right",2,,,,,800,48,16.66,118765,up,670,1,
425529_260415_075527.csv,Chrome,146.0.0.0,1470,956,MacOS,en-AU,2026-04-15_07:52:35,2026-04-15_17:52:35,2026-04-14_21:49:27,https://www.testable.org/experiment/20535/425529/start,172.254,172254,2.8709,49,test,BLUE,red,left,critical,incongruent,,word,800,"left up right",2,,,,,800,48,16.67,120210,left,649,1,
425529_260415_075527.csv,Chrome,146.0.0.0,1470,956,MacOS,en-AU,2026-04-15_07:52:35,2026-04-15_17:52:35,2026-04-14_21:49:27,https://www.testable.org/experiment/20535/425529/start,172.254,172254,2.8709,56,test,HOUSE,green,right,fillers,NA,,word,800,"left up right",2,,,,,800,48,16.67,121595,right,584,1,
425529_260415_075527.csv,Chrome,146.0.0.0,1470,956,MacOS,en-AU,2026-04-15_07:52:35,2026-04-15_17:52:35,2026-04-14_21:49:27,https://www.testable.org/experiment/20535/425529/start,172.254,172254,2.8709,61,test,RED,blue,up,critical,incongruent,,word,800,"left up right",2,,,,,800,48,16.67,122904,up,510,1,
425529_260415_075527.csv,Chrome,146.0.0.0,1470,956,MacOS,en-AU,2026-04-15_07:52:35,2026-04-15_17:52:35,2026-04-14_21:49:27,https://www.testable.org/experiment/20535/425529/start,172.254,172254,2.8709,46,test,RED,red,left,critical,congruent,,word,800,"left up right",2,,,,,800,48,16.67,124154,left,460,1,
425529_260415_075527.csv,Chrome,146.0.0.0,1470,956,MacOS,en-AU,2026-04-15_07:52:35,2026-04-15_17:52:35,2026-04-14_21:49:27,https://www.testable.org/experiment/20535/425529/start,172.254,172254,2.8709,55,test,SHOE,red,left,fillers,NA,,word,800,"left up right",2,,,,,800,48,16.67,125435,left,490,1,
425529_260415_075527.csv,Chrome,146.0.0.0,1470,956,MacOS,en-AU,2026-04-15_07:52:35,2026-04-15_17:52:35,2026-04-14_21:49:27,https://www.testable.org/experiment/20535/425529/start,172.254,172254,2.8709,52,test,CAR,red,left,fillers,NA,,word,800,"left up right",2,,,,,800,48,16.67,126667,left,439,1,
425529_260415_075527.csv,Chrome,146.0.0.0,1470,956,MacOS,en-AU,2026-04-15_07:52:35,2026-04-15_17:52:35,2026-04-14_21:49:27,https://www.testable.org/experiment/20535/425529/start,172.254,172254,2.8709,63,test,BLUE,blue,up,critical,congruent,,word,800,"left up right",2,,,,,800,48,16.67,127804,up,343,1,
425529_260415_075527.csv,Chrome,146.0.0.0,1470,956,MacOS,en-AU,2026-04-15_07:52:35,2026-04-15_17:52:35,2026-04-14_21:49:27,https://www.testable.org/experiment/20535/425529/start,172.254,172254,2.8709,51,test,GREEN,blue,up,critical,incongruent,,word,800,"left up right",2,,,,,800,48,16.66,129435,right,841,0,
425529_260415_075527.csv,Chrome,146.0.0.0,1470,956,MacOS,en-AU,2026-04-15_07:52:35,2026-04-15_17:52:35,2026-04-14_21:49:27,https://www.testable.org/experiment/20535/425529/start,172.254,172254,2.8709,70,test,BLUE,green,right,critical,incongruent,,word,800,"left up right",2,,,,,800,48,16.67,130824,up,596,0,
425529_260415_075527.csv,Chrome,146.0.0.0,1470,956,MacOS,en-AU,2026-04-15_07:52:35,2026-04-15_17:52:35,2026-04-14_21:49:27,https://www.testable.org/experiment/20535/425529/start,172.254,172254,2.8709,64,test,BLUE,blue,up,critical,congruent,,word,800,"left up right",2,,,,,800,48,16.67,132665,up,1053,1,
425529_260415_075527.csv,Chrome,146.0.0.0,1470,956,MacOS,en-AU,2026-04-15_07:52:35,2026-04-15_17:52:35,2026-04-14_21:49:27,https://www.testable.org/experiment/20535/425529/start,172.254,172254,2.8709,66,test,GREEN,green,right,critical,congruent,,word,800,"left up right",2,,,,,801,48,16.68,134289,right,827,1,
425529_260415_075527.csv,Chrome,146.0.0.0,1470,956,MacOS,en-AU,2026-04-15_07:52:35,2026-04-15_17:52:35,2026-04-14_21:49:27,https://www.testable.org/experiment/20535/425529/start,172.254,172254,2.8709,57,test,HOUSE,blue,up,fillers,NA,,word,800,"left up right",2,,,,,800,48,16.66,135744,up,666,1,
425529_260415_075527.csv,Chrome,146.0.0.0,1470,956,MacOS,en-AU,2026-04-15_07:52:35,2026-04-15_17:52:35,2026-04-14_21:49:27,https://www.testable.org/experiment/20535/425529/start,172.254,172254,2.8709,74,test,GREEN,blue,up,critical,incongruent,,word,800,"left up right",2,,,,,800,48,16.67,137031,up,489,1,
425529_260415_075527.csv,Chrome,146.0.0.0,1470,956,MacOS,en-AU,2026-04-15_07:52:35,2026-04-15_17:52:35,2026-04-14_21:49:27,https://www.testable.org/experiment/20535/425529/start,172.254,172254,2.8709,75,test,GREEN,red,left,critical,incongruent,,word,800,"left up right",2,,,,,800,48,16.67,138490,left,661,1,
425529_260415_075527.csv,Chrome,146.0.0.0,1470,956,MacOS,en-AU,2026-04-15_07:52:35,2026-04-15_17:52:35,2026-04-14_21:49:27,https://www.testable.org/experiment/20535/425529/start,172.254,172254,2.8709,67,test,GREEN,green,right,critical,congruent,,word,800,"left up right",2,,,,,800,48,16.66,139935,right,658,1,
425529_260415_075527.csv,Chrome,146.0.0.0,1470,956,MacOS,en-AU,2026-04-15_07:52:35,2026-04-15_17:52:35,2026-04-14_21:49:27,https://www.testable.org/experiment/20535/425529/start,172.254,172254,2.8709,79,test,SHOE,green,right,fillers,NA,,word,800,"left up right",2,,,,,800,48,16.67,141377,right,649,1,
425529_260415_075527.csv,Chrome,146.0.0.0,1470,956,MacOS,en-AU,2026-04-15_07:52:35,2026-04-15_17:52:35,2026-04-14_21:49:27,https://www.testable.org/experiment/20535/425529/start,172.254,172254,2.8709,76,test,CAR,red,left,fillers,NA,,word,800,"left up right",2,,,,,800,48,16.67,142784,left,606,1,
425529_260415_075527.csv,Chrome,146.0.0.0,1470,956,MacOS,en-AU,2026-04-15_07:52:35,2026-04-15_17:52:35,2026-04-14_21:49:27,https://www.testable.org/experiment/20535/425529/start,172.254,172254,2.8709,69,test,RED,blue,up,critical,incongruent,,word,800,"left up right",2,,,,,800,48,16.67,144526,up,948,1,
425529_260415_075527.csv,Chrome,146.0.0.0,1470,956,MacOS,en-AU,2026-04-15_07:52:35,2026-04-15_17:52:35,2026-04-14_21:49:27,https://www.testable.org/experiment/20535/425529/start,172.254,172254,2.8709,71,test,BLUE,red,left,critical,incongruent,,word,800,"left up right",2,,,,,800,48,16.67,145896,left,568,1,
425529_260415_075527.csv,Chrome,146.0.0.0,1470,956,MacOS,en-AU,2026-04-15_07:52:35,2026-04-15_17:52:35,2026-04-14_21:49:27,https://www.testable.org/experiment/20535/425529/start,172.254,172254,2.8709,53,test,CAR,green,right,fillers,NA,,word,800,"left up right",2,,,,,800,48,16.67,147411,right,717,1,
425529_260415_075527.csv,Chrome,146.0.0.0,1470,956,MacOS,en-AU,2026-04-15_07:52:35,2026-04-15_17:52:35,2026-04-14_21:49:27,https://www.testable.org/experiment/20535/425529/start,172.254,172254,2.8709,72,test,BLUE,green,right,critical,incongruent,,word,800,"left up right",2,,,,,800,48,16.67,148800,right,588,1,
425529_260415_075527.csv,Chrome,146.0.0.0,1470,956,MacOS,en-AU,2026-04-15_07:52:35,2026-04-15_17:52:35,2026-04-14_21:49:27,https://www.testable.org/experiment/20535/425529/start,172.254,172254,2.8709,81,test,HOUSE,red,left,fillers,NA,,word,800,"left up right",2,,,,,800,48,16.67,150201,left,606,1,
425529_260415_075527.csv,Chrome,146.0.0.0,1470,956,MacOS,en-AU,2026-04-15_07:52:35,2026-04-15_17:52:35,2026-04-14_21:49:27,https://www.testable.org/experiment/20535/425529/start,172.254,172254,2.8709,50,test,GREEN,green,right,critical,congruent,,word,800,"left up right",2,,,,,800,48,16.67,151532,right,537,1,
425529_260415_075527.csv,Chrome,146.0.0.0,1470,956,MacOS,en-AU,2026-04-15_07:52:35,2026-04-15_17:52:35,2026-04-14_21:49:27,https://www.testable.org/experiment/20535/425529/start,172.254,172254,2.8709,48,test,BLUE,blue,up,critical,congruent,,word,800,"left up right",2,,,,,800,48,16.67,152874,up,547,1,
425529_260415_075527.csv,Chrome,146.0.0.0,1470,956,MacOS,en-AU,2026-04-15_07:52:35,2026-04-15_17:52:35,2026-04-14_21:49:27,https://www.testable.org/experiment/20535/425529/start,172.254,172254,2.8709,59,test,RED,red,left,critical,congruent,,word,800,"left up right",2,,,,,800,48,16.67,154121,left,461,1,
425529_260415_075527.csv,Chrome,146.0.0.0,1470,956,MacOS,en-AU,2026-04-15_07:52:35,2026-04-15_17:52:35,2026-04-14_21:49:27,https://www.testable.org/experiment/20535/425529/start,172.254,172254,2.8709,65,test,GREEN,green,right,critical,congruent,,word,800,"left up right",2,,,,,800,48,16.66,155480,right,570,1,
425529_260415_075527.csv,Chrome,146.0.0.0,1470,956,MacOS,en-AU,2026-04-15_07:52:35,2026-04-15_17:52:35,2026-04-14_21:49:27,https://www.testable.org/experiment/20535/425529/start,172.254,172254,2.8709,60,test,RED,red,left,critical,congruent,,word,800,"left up right",2,,,,,800,48,16.67,156713,left,435,1,
425529_260415_075527.csv,Chrome,146.0.0.0,1470,956,MacOS,en-AU,2026-04-15_07:52:35,2026-04-15_17:52:35,2026-04-14_21:49:27,https://www.testable.org/experiment/20535/425529/start,172.254,172254,2.8709,80,test,HOUSE,green,right,fillers,NA,,word,800,"left up right",2,,,,,800,48,16.66,158062,right,550,1,
425529_260415_075527.csv,Chrome,146.0.0.0,1470,956,MacOS,en-AU,2026-04-15_07:52:35,2026-04-15_17:52:35,2026-04-14_21:49:27,https://www.testable.org/experiment/20535/425529/start,172.254,172254,2.8709,77,test,CAR,blue,up,fillers,NA,,word,800,"left up right",2,,,,,800,48,16.66,159460,up,599,1,
425529_260415_075527.csv,Chrome,146.0.0.0,1470,956,MacOS,en-AU,2026-04-15_07:52:35,2026-04-15_17:52:35,2026-04-14_21:49:27,https://www.testable.org/experiment/20535/425529/start,172.254,172254,2.8709,73,test,GREEN,red,left,critical,incongruent,,word,800,"left up right",2,,,,,800,48,16.67,160779,left,517,1,
425529_260415_075527.csv,Chrome,146.0.0.0,1470,956,MacOS,en-AU,2026-04-15_07:52:35,2026-04-15_17:52:35,2026-04-14_21:49:27,https://www.testable.org/experiment/20535/425529/start,172.254,172254,2.8709,58,test,RED,red,left,critical,congruent,,word,800,"left up right",2,,,,,800,48,16.67,162171,left,593,1,
425529_260415_075527.csv,Chrome,146.0.0.0,1470,956,MacOS,en-AU,2026-04-15_07:52:35,2026-04-15_17:52:35,2026-04-14_21:49:27,https://www.testable.org/experiment/20535/425529/start,172.254,172254,2.8709,54,test,SHOE,blue,up,fillers,NA,,word,800,"left up right",2,,,,,801,48,16.68,163580,up,619,1,
425529_260415_075527.csv,Chrome,146.0.0.0,1470,956,MacOS,en-AU,2026-04-15_07:52:35,2026-04-15_17:52:35,2026-04-14_21:49:27,https://www.testable.org/experiment/20535/425529/start,172.254,172254,2.8709,68,test,RED,green,right,critical,incongruent,,word,800,"left up right",2,,,,,800,48,16.67,164749,right,371,1,
425529_260415_075527.csv,Chrome,146.0.0.0,1470,956,MacOS,en-AU,2026-04-15_07:52:35,2026-04-15_17:52:35,2026-04-14_21:49:27,https://www.testable.org/experiment/20535/425529/start,172.254,172254,2.8709,78,test,SHOE,blue,up,fillers,NA,,word,800,"left up right",2,,,,,800,48,16.67,165971,up,427,1,
